Time,Header.seq,Header.stamp.secs,Header.stamp.nsecs,Header.frame_id,imu.header.seq,imu.header.stamp.secs,imu.header.stamp.nsecs,imu.header.frame_id,imu.orientation.x,imu.orientation.y,imu.orientation.z,imu.orientation.w,imu.orientation_covariance,imu.angular_velocity.x,imu.angular_velocity.y,imu.angular_velocity.z,imu.angular_velocity_covariance,imu.linear_acceleration.x,imu.linear_acceleration.y,imu.linear_acceleration.z,imu.linear_acceleration_covariance,mag_field.header.seq,mag_field.header.stamp.secs,mag_field.header.stamp.nsecs,mag_field.header.frame_id,mag_field.magnetic_field.x,mag_field.magnetic_field.y,mag_field.magnetic_field.z,mag_field.magnetic_field_covariance,imu_raw_data
1678037832.3335152,7628,1678037832,330540895,imu1_frame,0,0,0,,-0.2550970568998077,0.12196419080295988,0.8800716108498878,0.38147632626274347,"(0.0, 0.0, 0.0, 0.0, 0.0, 0.0, 0.0, 0.0, 0.0)",0.344805,0.395992,0.180572,"(0.0, 0.0, 0.0, 0.0, 0.0, 0.0, 0.0, 0.0, 0.0)",-0.134,1.323,-9.781,"(0.0, 0.0, 0.0, 0.0, 0.0, 0.0, 0.0, 0.0, 0.0)",0,0,0,,0.072,-0.1127,0.2544,"(0.0, 0.0, 0.0, 0.0, 0.0, 0.0, 0.0, 0.0, 0.0)","$VNYMR,+133.533,+032.824,+001.367,+00.0720,-00.1127,+00.2544,-00.134,+01.323,-09.781,+00.344805,+00.395992,+00.180572*6F
"
1678037832.3583498,7629,1678037832,355560541,imu1_frame,0,0,0,,-0.2558947126934353,0.12972676751616097,0.8800203760900586,0.3784877798181388,"(0.0, 0.0, 0.0, 0.0, 0.0, 0.0, 0.0, 0.0, 0.0)",0.495171,0.233141,0.375801,"(0.0, 0.0, 0.0, 0.0, 0.0, 0.0, 0.0, 0.0, 0.0)",0.114,0.727,-9.292,"(0.0, 0.0, 0.0, 0.0, 0.0, 0.0, 0.0, 0.0, 0.0)",0,0,0,,0.0677,-0.1148,0.2535,"(0.0, 0.0, 0.0, 0.0, 0.0, 0.0, 0.0, 0.0, 0.0)","$VNYMR,+134.165,+033.270,+002.373,+00.0677,-00.1148,+00.2535,+00.114,+00.727,-09.292,+00.495171,+00.233141,+00.375801*66
"
1678037832.384584,7630,1678037832,381325006,imu1_frame,0,0,0,,-0.25558039946425803,0.137761187249298,0.8803144043747233,0.37516271689459013,"(0.0, 0.0, 0.0, 0.0, 0.0, 0.0, 0.0, 0.0, 0.0)",0.500244,0.253629,0.357418,"(0.0, 0.0, 0.0, 0.0, 0.0, 0.0, 0.0, 0.0, 0.0)",0.465,0.416,-9.702,"(0.0, 0.0, 0.0, 0.0, 0.0, 0.0, 0.0, 0.0, 0.0)",0,0,0,,0.0649,-0.1065,0.2564,"(0.0, 0.0, 0.0, 0.0, 0.0, 0.0, 0.0, 0.0, 0.0)","$VNYMR,+134.891,+033.597,+003.495,+00.0649,-00.1065,+00.2564,+00.465,+00.416,-09.702,+00.500244,+00.253629,+00.357418*6E
"
1678037832.4088557,7631,1678037832,406232118,imu1_frame,0,0,0,,-0.25403196847310816,0.14567308768768564,0.880884506748541,0.3718730916422877,"(0.0, 0.0, 0.0, 0.0, 0.0, 0.0, 0.0, 0.0, 0.0)",0.545991,0.069878,0.518234,"(0.0, 0.0, 0.0, 0.0, 0.0, 0.0, 0.0, 0.0, 0.0)",-0.077,0.932,-9.33,"(0.0, 0.0, 0.0, 0.0, 0.0, 0.0, 0.0, 0.0, 0.0)",0,0,0,,0.0635,-0.1095,0.2564,"(0.0, 0.0, 0.0, 0.0, 0.0, 0.0, 0.0, 0.0, 0.0)","$VNYMR,+135.644,+033.772,+004.672,+00.0635,-00.1095,+00.2564,-00.077,+00.932,-09.330,+00.545991,+00.069878,+00.518234*61
"
1678037832.4335074,7632,1678037832,431140661,imu1_frame,0,0,0,,-0.252769511049391,0.15343681023291939,0.8818304060547689,0.36734160464978655,"(0.0, 0.0, 0.0, 0.0, 0.0, 0.0, 0.0, 0.0, 0.0)",0.407238,0.28813,0.437087,"(0.0, 0.0, 0.0, 0.0, 0.0, 0.0, 0.0, 0.0, 0.0)",0.619,-0.293,-10.227,"(0.0, 0.0, 0.0, 0.0, 0.0, 0.0, 0.0, 0.0, 0.0)",0,0,0,,0.0593,-0.1064,0.2593,"(0.0, 0.0, 0.0, 0.0, 0.0, 0.0, 0.0, 0.0, 0.0)","$VNYMR,+136.565,+033.954,+005.875,+00.0593,-00.1064,+00.2593,+00.619,-00.293,-10.227,+00.407238,+00.288130,+00.437087*69
"
1678037832.4591093,7633,1678037832,456255435,imu1_frame,0,0,0,,-0.25401370464145734,0.15918804947099804,0.8815127860699151,0.3647895431001248,"(0.0, 0.0, 0.0, 0.0, 0.0, 0.0, 0.0, 0.0, 0.0)",0.265965,0.278382,0.169061,"(0.0, 0.0, 0.0, 0.0, 0.0, 0.0, 0.0, 0.0, 0.0)",0.57,-0.489,-9.885,"(0.0, 0.0, 0.0, 0.0, 0.0, 0.0, 0.0, 0.0, 0.0)",0,0,0,,0.0593,-0.1057,0.2585,"(0.0, 0.0, 0.0, 0.0, 0.0, 0.0, 0.0, 0.0, 0.0)","$VNYMR,+137.088,+034.331,+006.629,+00.0593,-00.1057,+00.2585,+00.570,-00.489,-09.885,+00.265965,+00.278382,+00.169061*6B
"
1678037832.483862,7634,1678037832,481188774,imu1_frame,0,0,0,,-0.25592113397092925,0.16303564558008082,0.8806401353165738,0.36386357818133774,"(0.0, 0.0, 0.0, 0.0, 0.0, 0.0, 0.0, 0.0, 0.0)",0.173122,0.279829,0.073011,"(0.0, 0.0, 0.0, 0.0, 0.0, 0.0, 0.0, 0.0, 0.0)",0.399,-0.111,-10.019,"(0.0, 0.0, 0.0, 0.0, 0.0, 0.0, 0.0, 0.0, 0.0)",0,0,0,,0.0565,-0.1004,0.2575,"(0.0, 0.0, 0.0, 0.0, 0.0, 0.0, 0.0, 0.0, 0.0)","$VNYMR,+137.307,+034.708,+007.051,+00.0565,-00.1004,+00.2575,+00.399,-00.111,-10.019,+00.173122,+00.279829,+00.073011*60
"
1678037832.527017,7635,1678037832,506100893,imu1_frame,0,0,0,,-0.2584830899259293,0.16531850419010566,0.8797620642188362,0.3631459689382526,"(0.0, 0.0, 0.0, 0.0, 0.0, 0.0, 0.0, 0.0, 0.0)",0.00642,0.271226,0.013938,"(0.0, 0.0, 0.0, 0.0, 0.0, 0.0, 0.0, 0.0, 0.0)",0.905,-0.414,-9.445,"(0.0, 0.0, 0.0, 0.0, 0.0, 0.0, 0.0, 0.0, 0.0)",0,0,0,,0.0543,-0.1011,0.2598,"(0.0, 0.0, 0.0, 0.0, 0.0, 0.0, 0.0, 0.0, 0.0)","$VNYMR,+137.433,+035.091,+007.242,+00.0543,-00.1011,+00.2598,+00.905,-00.414,-09.445,+00.006420,+00.271226,+00.013938*62
"
1678037832.572109,7636,1678037832,531444311,imu1_frame,0,0,0,,-0.26115161305915996,0.16574670942193562,0.8787097678059093,0.36358906374488803,"(0.0, 0.0, 0.0, 0.0, 0.0, 0.0, 0.0, 0.0, 0.0)",-0.051931,0.195274,-0.142225,"(0.0, 0.0, 0.0, 0.0, 0.0, 0.0, 0.0, 0.0, 0.0)",1.192,-0.855,-9.447,"(0.0, 0.0, 0.0, 0.0, 0.0, 0.0, 0.0, 0.0, 0.0)",0,0,0,,0.0536,-0.104,0.2629,"(0.0, 0.0, 0.0, 0.0, 0.0, 0.0, 0.0, 0.0, 0.0)","$VNYMR,+137.327,+035.414,+007.146,+00.0536,-00.1040,+00.2629,+01.192,-00.855,-09.447,-00.051931,+00.195274,-00.142225*6E
"
1678037832.5721364,7637,1678037832,556052684,imu1_frame,0,0,0,,-0.2641898942913771,0.1649074910634476,0.8770604813773831,0.3657514609014473,"(0.0, 0.0, 0.0, 0.0, 0.0, 0.0, 0.0, 0.0, 0.0)",-0.092165,0.200987,-0.336658,"(0.0, 0.0, 0.0, 0.0, 0.0, 0.0, 0.0, 0.0, 0.0)",1.252,-0.975,-9.072,"(0.0, 0.0, 0.0, 0.0, 0.0, 0.0, 0.0, 0.0, 0.0)",0,0,0,,0.0515,-0.1047,0.2636,"(0.0, 0.0, 0.0, 0.0, 0.0, 0.0, 0.0, 0.0, 0.0)","$VNYMR,+136.918,+035.736,+006.793,+00.0515,-00.1047,+00.2636,+01.252,-00.975,-09.072,-00.092165,+00.200987,-00.336658*62
"
1678037832.6151104,7638,1678037832,580998182,imu1_frame,0,0,0,,-0.2680853133929912,0.16282071005952437,0.8745154798919607,0.3699220952417249,"(0.0, 0.0, 0.0, 0.0, 0.0, 0.0, 0.0, 0.0, 0.0)",-0.177245,0.20915,-0.529887,"(0.0, 0.0, 0.0, 0.0, 0.0, 0.0, 0.0, 0.0, 0.0)",1.183,-0.617,-8.854,"(0.0, 0.0, 0.0, 0.0, 0.0, 0.0, 0.0, 0.0, 0.0)",0,0,0,,0.0529,-0.1011,0.2589,"(0.0, 0.0, 0.0, 0.0, 0.0, 0.0, 0.0, 0.0, 0.0)","$VNYMR,+136.147,+036.111,+006.142,+00.0529,-00.1011,+00.2589,+01.183,-00.617,-08.854,-00.177245,+00.209150,-00.529887*6C
"
1678037832.615141,7639,1678037832,605952262,imu1_frame,0,0,0,,-0.2723433743426959,0.1604103954223745,0.8716105529796115,0.3746900524789091,"(0.0, 0.0, 0.0, 0.0, 0.0, 0.0, 0.0, 0.0, 0.0)",-0.105368,0.243783,-0.49401,"(0.0, 0.0, 0.0, 0.0, 0.0, 0.0, 0.0, 0.0, 0.0)",1.044,-0.089,-8.837,"(0.0, 0.0, 0.0, 0.0, 0.0, 0.0, 0.0, 0.0, 0.0)",0,0,0,,0.05,-0.1062,0.2597,"(0.0, 0.0, 0.0, 0.0, 0.0, 0.0, 0.0, 0.0, 0.0)","$VNYMR,+135.256,+036.510,+005.393,+00.0500,-00.1062,+00.2597,+01.044,-00.089,-08.837,-00.105368,+00.243783,-00.494010*66
"
1678037832.6634705,7640,1678037832,630936384,imu1_frame,0,0,0,,-0.27628400514644813,0.15988567632063147,0.8687918967503258,0.37855562226534584,"(0.0, 0.0, 0.0, 0.0, 0.0, 0.0, 0.0, 0.0, 0.0)",0.027152,0.298068,-0.400774,"(0.0, 0.0, 0.0, 0.0, 0.0, 0.0, 0.0, 0.0, 0.0)",1.52,-0.879,-9.131,"(0.0, 0.0, 0.0, 0.0, 0.0, 0.0, 0.0, 0.0, 0.0)",0,0,0,,0.0508,-0.101,0.2628,"(0.0, 0.0, 0.0, 0.0, 0.0, 0.0, 0.0, 0.0, 0.0)","$VNYMR,+134.559,+036.950,+004.927,+00.0508,-00.1010,+00.2628,+01.520,-00.879,-09.131,+00.027152,+00.298068,-00.400774*67
"
1678037832.6635067,7641,1678037832,655858993,imu1_frame,0,0,0,,-0.28008381432035906,0.1596712278481292,0.8653171503715598,0.38377647820843963,"(0.0, 0.0, 0.0, 0.0, 0.0, 0.0, 0.0, 0.0, 0.0)",0.031745,0.240135,-0.601333,"(0.0, 0.0, 0.0, 0.0, 0.0, 0.0, 0.0, 0.0, 0.0)",1.174,-0.629,-9.129,"(0.0, 0.0, 0.0, 0.0, 0.0, 0.0, 0.0, 0.0, 0.0)",0,0,0,,0.0501,-0.098,0.2651,"(0.0, 0.0, 0.0, 0.0, 0.0, 0.0, 0.0, 0.0, 0.0)","$VNYMR,+133.664,+037.393,+004.429,+00.0501,-00.0980,+00.2651,+01.174,-00.629,-09.129,+00.031745,+00.240135,-00.601333*64
"
1678037832.7070603,7642,1678037832,680721998,imu1_frame,0,0,0,,-0.2838140875809136,0.15943038487325636,0.8615950023668749,0.3894683144572917,"(0.0, 0.0, 0.0, 0.0, 0.0, 0.0, 0.0, 0.0, 0.0)",0.091048,0.322471,-0.49629,"(0.0, 0.0, 0.0, 0.0, 0.0, 0.0, 0.0, 0.0, 0.0)",1.574,-0.196,-9.979,"(0.0, 0.0, 0.0, 0.0, 0.0, 0.0, 0.0, 0.0, 0.0)",0,0,0,,0.0501,-0.1039,0.2628,"(0.0, 0.0, 0.0, 0.0, 0.0, 0.0, 0.0, 0.0, 0.0)","$VNYMR,+132.686,+037.825,+003.895,+00.0501,-00.1039,+00.2628,+01.574,-00.196,-09.979,+00.091048,+00.322471,-00.496290*69
"
1678037832.7087648,7643,1678037832,705801248,imu1_frame,0,0,0,,-0.2770418303530755,0.16759140735523115,0.8636116129602042,0.38644006828431354,"(0.0, 0.0, 0.0, 0.0, 0.0, 0.0, 0.0, 0.0, 0.0)",0.606784,-0.855148,0.813074,"(0.0, 0.0, 0.0, 0.0, 0.0, 0.0, 0.0, 0.0, 0.0)",-0.138,-4.423,-8.788,"(0.0, 0.0, 0.0, 0.0, 0.0, 0.0, 0.0, 0.0, 0.0)",0,0,0,,0.0494,-0.0965,0.2642,"(0.0, 0.0, 0.0, 0.0, 0.0, 0.0, 0.0, 0.0, 0.0)","$VNYMR,+133.633,+037.448,+005.446,+00.0494,-00.0965,+00.2642,-00.138,-04.423,-08.788,+00.606784,-00.855148,+00.813074*62
"
1678037832.7511206,7644,1678037832,730711221,imu1_frame,0,0,0,,-0.2690482102365629,0.16917525275964163,0.8648220966780058,0.38868436490251485,"(0.0, 0.0, 0.0, 0.0, 0.0, 0.0, 0.0, 0.0, 0.0)",0.18446,-0.738124,-0.256524,"(0.0, 0.0, 0.0, 0.0, 0.0, 0.0, 0.0, 0.0, 0.0)",-0.392,-2.291,-7.276,"(0.0, 0.0, 0.0, 0.0, 0.0, 0.0, 0.0, 0.0, 0.0)",0,0,0,,0.0523,-0.0898,0.2635,"(0.0, 0.0, 0.0, 0.0, 0.0, 0.0, 0.0, 0.0, 0.0)","$VNYMR,+133.577,+036.646,+005.971,+00.0523,-00.0898,+00.2635,-00.392,-02.291,-07.276,+00.184460,-00.738124,-00.256524*6C
"
1678037832.7950976,7645,1678037832,755702972,imu1_frame,0,0,0,,-0.25837027332412205,0.16395694242793168,0.8658271492804426,0.3958614283572022,"(0.0, 0.0, 0.0, 0.0, 0.0, 0.0, 0.0, 0.0, 0.0)",0.147488,-1.016555,-0.487573,"(0.0, 0.0, 0.0, 0.0, 0.0, 0.0, 0.0, 0.0, 0.0)",-0.347,-0.058,-9.463,"(0.0, 0.0, 0.0, 0.0, 0.0, 0.0, 0.0, 0.0, 0.0)",0,0,0,,0.0609,-0.09,0.2591,"(0.0, 0.0, 0.0, 0.0, 0.0, 0.0, 0.0, 0.0, 0.0)","$VNYMR,+132.633,+035.255,+005.577,+00.0609,-00.0900,+00.2591,-00.347,-00.058,-09.463,+00.147488,-01.016555,-00.487573*6F
"
1678037832.7951186,7646,1678037832,781514644,imu1_frame,0,0,0,,-0.24631477191545875,0.16055488445745086,0.8673069556293344,0.40165881906173306,"(0.0, 0.0, 0.0, 0.0, 0.0, 0.0, 0.0, 0.0, 0.0)",0.304098,-1.195449,-0.13098,"(0.0, 0.0, 0.0, 0.0, 0.0, 0.0, 0.0, 0.0, 0.0)",-0.204,0.549,-8.775,"(0.0, 0.0, 0.0, 0.0, 0.0, 0.0, 0.0, 0.0, 0.0)",0,0,0,,0.0665,-0.0953,0.2626,"(0.0, 0.0, 0.0, 0.0, 0.0, 0.0, 0.0, 0.0, 0.0)","$VNYMR,+131.994,+033.796,+005.568,+00.0665,-00.0953,+00.2626,-00.204,+00.549,-08.775,+00.304098,-01.195449,-00.130980*60
"
1678037832.8390691,7647,1678037832,806452035,imu1_frame,0,0,0,,-0.23181305127481422,0.15721256523708205,0.8700602866925345,0.4056377893031435,"(0.0, 0.0, 0.0, 0.0, 0.0, 0.0, 0.0, 0.0, 0.0)",0.253332,-1.238748,-0.097576,"(0.0, 0.0, 0.0, 0.0, 0.0, 0.0, 0.0, 0.0, 0.0)",-0.334,-0.361,-9.294,"(0.0, 0.0, 0.0, 0.0, 0.0, 0.0, 0.0, 0.0, 0.0)",0,0,0,,0.0758,-0.0873,0.2605,"(0.0, 0.0, 0.0, 0.0, 0.0, 0.0, 0.0, 0.0, 0.0)","$VNYMR,+131.674,+032.068,+005.791,+00.0758,-00.0873,+00.2605,-00.334,-00.361,-09.294,+00.253332,-01.238748,-00.097576*63
"
1678037832.8390925,7648,1678037832,830526113,imu1_frame,0,0,0,,-0.2180439600915216,0.15241138407693758,0.8724989672923492,0.40984528000837483,"(0.0, 0.0, 0.0, 0.0, 0.0, 0.0, 0.0, 0.0, 0.0)",0.071478,-1.09374,-0.155373,"(0.0, 0.0, 0.0, 0.0, 0.0, 0.0, 0.0, 0.0, 0.0)",-0.398,-0.682,-10.21,"(0.0, 0.0, 0.0, 0.0, 0.0, 0.0, 0.0, 0.0, 0.0)",0,0,0,,0.0851,-0.0838,0.2577,"(0.0, 0.0, 0.0, 0.0, 0.0, 0.0, 0.0, 0.0, 0.0)","$VNYMR,+131.253,+030.359,+005.802,+00.0851,-00.0838,+00.2577,-00.398,-00.682,-10.210,+00.071478,-01.093740,-00.155373*6D
"
1678037832.8830998,7649,1678037832,855523347,imu1_frame,0,0,0,,-0.20736720257423027,0.14747294891978185,0.8738395231773082,0.4143127567028273,"(0.0, 0.0, 0.0, 0.0, 0.0, 0.0, 0.0, 0.0, 0.0)",0.022848,-0.816492,-0.280359,"(0.0, 0.0, 0.0, 0.0, 0.0, 0.0, 0.0, 0.0, 0.0)",0.01,-1.127,-10.815,"(0.0, 0.0, 0.0, 0.0, 0.0, 0.0, 0.0, 0.0, 0.0)",0,0,0,,0.0907,-0.0899,0.2541,"(0.0, 0.0, 0.0, 0.0, 0.0, 0.0, 0.0, 0.0, 0.0)","$VNYMR,+130.724,+028.987,+005.636,+00.0907,-00.0899,+00.2541,+00.010,-01.127,-10.815,+00.022848,-00.816492,-00.280359*6D
"
1678037832.8841276,7650,1678037832,881264925,imu1_frame,0,0,0,,-0.2027424304267185,0.1429340093243039,0.8740706733189434,0.41769107475132383,"(0.0, 0.0, 0.0, 0.0, 0.0, 0.0, 0.0, 0.0, 0.0)",-0.067248,-0.39914,-0.188044,"(0.0, 0.0, 0.0, 0.0, 0.0, 0.0, 0.0, 0.0, 0.0)",-0.785,-0.395,-10.217,"(0.0, 0.0, 0.0, 0.0, 0.0, 0.0, 0.0, 0.0, 0.0)",0,0,0,,0.095,-0.0856,0.2535,"(0.0, 0.0, 0.0, 0.0, 0.0, 0.0, 0.0, 0.0, 0.0)","$VNYMR,+130.239,+028.283,+005.245,+00.0950,-00.0856,+00.2535,-00.785,-00.395,-10.217,-00.067248,-00.399140,-00.188044*69
"
1678037832.9270759,7651,1678037832,906218290,imu1_frame,0,0,0,,-0.20079275552926273,0.1418068393149505,0.8738856778955937,0.41940065762875034,"(0.0, 0.0, 0.0, 0.0, 0.0, 0.0, 0.0, 0.0, 0.0)",-0.003316,0.079866,-0.000755,"(0.0, 0.0, 0.0, 0.0, 0.0, 0.0, 0.0, 0.0, 0.0)",-0.583,0.196,-11.227,"(0.0, 0.0, 0.0, 0.0, 0.0, 0.0, 0.0, 0.0, 0.0)",0,0,0,,0.0971,-0.0863,0.2559,"(0.0, 0.0, 0.0, 0.0, 0.0, 0.0, 0.0, 0.0, 0.0)","$VNYMR,+130.014,+028.027,+005.162,+00.0971,-00.0863,+00.2559,-00.583,+00.196,-11.227,-00.003316,+00.079866,-00.000755*68
"
1678037832.9762564,7652,1678037832,931167840,imu1_frame,0,0,0,,-0.20698520844178872,0.1427741292237364,0.8725750942844868,0.4187903727942325,"(0.0, 0.0, 0.0, 0.0, 0.0, 0.0, 0.0, 0.0, 0.0)",-0.136933,0.630962,-0.172877,"(0.0, 0.0, 0.0, 0.0, 0.0, 0.0, 0.0, 0.0, 0.0)",-0.256,-1.462,-9.63,"(0.0, 0.0, 0.0, 0.0, 0.0, 0.0, 0.0, 0.0, 0.0)",0,0,0,,0.0915,-0.0825,0.2509,"(0.0, 0.0, 0.0, 0.0, 0.0, 0.0, 0.0, 0.0, 0.0)","$VNYMR,+129.994,+028.738,+004.959,+00.0915,-00.0825,+00.2509,-00.256,-01.462,-09.630,-00.136933,+00.630962,-00.172877*6E
"
1678037832.976293,7653,1678037832,956136226,imu1_frame,0,0,0,,-0.2147527280003882,0.1445586731154375,0.8694710419525583,0.4207186269342351,"(0.0, 0.0, 0.0, 0.0, 0.0, 0.0, 0.0, 0.0, 0.0)",-0.064847,0.608041,-0.273366,"(0.0, 0.0, 0.0, 0.0, 0.0, 0.0, 0.0, 0.0, 0.0)",-0.84,-0.217,-9.191,"(0.0, 0.0, 0.0, 0.0, 0.0, 0.0, 0.0, 0.0, 0.0)",0,0,0,,0.09,-0.0884,0.2533,"(0.0, 0.0, 0.0, 0.0, 0.0, 0.0, 0.0, 0.0, 0.0)","$VNYMR,+129.594,+029.675,+004.666,+00.0900,-00.0884,+00.2533,-00.840,-00.217,-09.191,-00.064847,+00.608041,-00.273366*64
"
1678037833.019108,7654,1678037832,981140136,imu1_frame,0,0,0,,-0.22094708720757064,0.14575343392498652,0.8679243341163858,0.4202923641968684,"(0.0, 0.0, 0.0, 0.0, 0.0, 0.0, 0.0, 0.0, 0.0)",-0.152041,0.409473,0.030172,"(0.0, 0.0, 0.0, 0.0, 0.0, 0.0, 0.0, 0.0, 0.0)",-0.659,-0.002,-8.786,"(0.0, 0.0, 0.0, 0.0, 0.0, 0.0, 0.0, 0.0, 0.0)",0,0,0,,0.0879,-0.0899,0.254,"(0.0, 0.0, 0.0, 0.0, 0.0, 0.0, 0.0, 0.0, 0.0)","$VNYMR,+129.539,+030.401,+004.474,+00.0879,-00.0899,+00.2540,-00.659,-00.002,-08.786,-00.152041,+00.409473,+00.030172*65
"
1678037833.019132,7655,1678037833,6193876,imu1_frame,0,0,0,,-0.2247272308862969,0.14429391915866374,0.8682383301520396,0.4181377029721285,"(0.0, 0.0, 0.0, 0.0, 0.0, 0.0, 0.0, 0.0, 0.0)",-0.342367,0.111538,0.115846,"(0.0, 0.0, 0.0, 0.0, 0.0, 0.0, 0.0, 0.0, 0.0)",-0.69,-0.025,-8.518,"(0.0, 0.0, 0.0, 0.0, 0.0, 0.0, 0.0, 0.0, 0.0)",0,0,0,,0.0857,-0.092,0.2579,"(0.0, 0.0, 0.0, 0.0, 0.0, 0.0, 0.0, 0.0, 0.0)","$VNYMR,+129.718,+030.724,+004.178,+00.0857,-00.0920,+00.2579,-00.690,-00.025,-08.518,-00.342367,+00.111538,+00.115846*67
"
1678037833.063158,7656,1678037833,31080245,imu1_frame,0,0,0,,-0.22427740232154172,0.1417473709282565,0.8697435551036854,0.4161171445619984,"(0.0, 0.0, 0.0, 0.0, 0.0, 0.0, 0.0, 0.0, 0.0)",-0.101939,-0.234603,0.106867,"(0.0, 0.0, 0.0, 0.0, 0.0, 0.0, 0.0, 0.0, 0.0)",0.035,-1.579,-8.949,"(0.0, 0.0, 0.0, 0.0, 0.0, 0.0, 0.0, 0.0, 0.0)",0,0,0,,0.085,-0.0943,0.2524,"(0.0, 0.0, 0.0, 0.0, 0.0, 0.0, 0.0, 0.0, 0.0)","$VNYMR,+129.953,+030.537,+003.989,+00.0850,-00.0943,+00.2524,+00.035,-01.579,-08.949,-00.101939,-00.234603,+00.106867*6B
"
1678037833.0632164,7657,1678037833,55948972,imu1_frame,0,0,0,,-0.22091815933158332,0.13978758250261844,0.8704370988829194,0.41712570712424973,"(0.0, 0.0, 0.0, 0.0, 0.0, 0.0, 0.0, 0.0, 0.0)",0.026193,-0.348553,-0.122474,"(0.0, 0.0, 0.0, 0.0, 0.0, 0.0, 0.0, 0.0, 0.0)",0.226,-1.308,-9.381,"(0.0, 0.0, 0.0, 0.0, 0.0, 0.0, 0.0, 0.0, 0.0)",0,0,0,,0.0871,-0.0921,0.258,"(0.0, 0.0, 0.0, 0.0, 0.0, 0.0, 0.0, 0.0, 0.0)","$VNYMR,+129.843,+030.080,+003.913,+00.0871,-00.0921,+00.2580,+00.226,-01.308,-09.381,+00.026193,-00.348553,-00.122474*6F
"
1678037833.1070802,7658,1678037833,80953359,imu1_frame,0,0,0,,-0.21776975908142604,0.13801450013691,0.8705440941473075,0.4191435433438292,"(0.0, 0.0, 0.0, 0.0, 0.0, 0.0, 0.0, 0.0, 0.0)",-0.01569,-0.244591,-0.120824,"(0.0, 0.0, 0.0, 0.0, 0.0, 0.0, 0.0, 0.0, 0.0)",-0.174,-0.749,-9.488,"(0.0, 0.0, 0.0, 0.0, 0.0, 0.0, 0.0, 0.0, 0.0)",0,0,0,,0.0886,-0.0921,0.2549,"(0.0, 0.0, 0.0, 0.0, 0.0, 0.0, 0.0, 0.0, 0.0)","$VNYMR,+129.590,+029.660,+003.810,+00.0886,-00.0921,+00.2549,-00.174,-00.749,-09.488,-00.015690,-00.244591,-00.120824*65
"
1678037833.1084425,7659,1678037833,105896234,imu1_frame,0,0,0,,-0.2168716482694918,0.13528834816965496,0.8706166433385748,0.4203455856414726,"(0.0, 0.0, 0.0, 0.0, 0.0, 0.0, 0.0, 0.0, 0.0)",-0.273333,-0.119311,-0.121521,"(0.0, 0.0, 0.0, 0.0, 0.0, 0.0, 0.0, 0.0, 0.0)",0.169,-0.909,-9.274,"(0.0, 0.0, 0.0, 0.0, 0.0, 0.0, 0.0, 0.0, 0.0)",0,0,0,,0.09,-0.0914,0.2525,"(0.0, 0.0, 0.0, 0.0, 0.0, 0.0, 0.0, 0.0, 0.0)","$VNYMR,+129.377,+029.430,+003.505,+00.0900,-00.0914,+00.2525,+00.169,-00.909,-09.274,-00.273333,-00.119311,-00.121521*60
"
1678037833.1511445,7660,1678037833,130859375,imu1_frame,0,0,0,,-0.21740210311271335,0.13155907249448165,0.8703822075966546,0.4217384837855505,"(0.0, 0.0, 0.0, 0.0, 0.0, 0.0, 0.0, 0.0, 0.0)",-0.036529,-0.024233,-0.357954,"(0.0, 0.0, 0.0, 0.0, 0.0, 0.0, 0.0, 0.0, 0.0)",-0.525,-1.917,-9.485,"(0.0, 0.0, 0.0, 0.0, 0.0, 0.0, 0.0, 0.0, 0.0)",0,0,0,,0.0914,-0.0937,0.2487,"(0.0, 0.0, 0.0, 0.0, 0.0, 0.0, 0.0, 0.0, 0.0)","$VNYMR,+129.080,+029.302,+003.000,+00.0914,-00.0937,+00.2487,-00.525,-01.917,-09.485,-00.036529,-00.024233,-00.357954*61
"
1678037833.1951473,7661,1678037833,155757665,imu1_frame,0,0,0,,-0.21825724264633095,0.13310514824307124,0.8676648750962646,0.42638534222906166,"(0.0, 0.0, 0.0, 0.0, 0.0, 0.0, 0.0, 0.0, 0.0)",0.323869,0.197121,-0.396313,"(0.0, 0.0, 0.0, 0.0, 0.0, 0.0, 0.0, 0.0, 0.0)",-0.356,-0.918,-9.528,"(0.0, 0.0, 0.0, 0.0, 0.0, 0.0, 0.0, 0.0, 0.0)",0,0,0,,0.0899,-0.0937,0.2494,"(0.0, 0.0, 0.0, 0.0, 0.0, 0.0, 0.0, 0.0, 0.0)","$VNYMR,+128.437,+029.489,+002.954,+00.0899,-00.0937,+00.2494,-00.356,-00.918,-09.528,+00.323869,+00.197121,-00.396313*6A
"
1678037833.195168,7662,1678037833,180726289,imu1_frame,0,0,0,,-0.21958529609409347,0.13750053332701123,0.8639654584589337,0.43178650704242877,"(0.0, 0.0, 0.0, 0.0, 0.0, 0.0, 0.0, 0.0, 0.0)",0.392334,0.202081,-0.484032,"(0.0, 0.0, 0.0, 0.0, 0.0, 0.0, 0.0, 0.0, 0.0)",-0.443,-0.58,-9.072,"(0.0, 0.0, 0.0, 0.0, 0.0, 0.0, 0.0, 0.0, 0.0)",0,0,0,,0.09,-0.0869,0.2548,"(0.0, 0.0, 0.0, 0.0, 0.0, 0.0, 0.0, 0.0, 0.0)","$VNYMR,+127.737,+029.879,+003.171,+00.0900,-00.0869,+00.2548,-00.443,-00.580,-09.072,+00.392334,+00.202081,-00.484032*6D
"
1678037833.2391253,7663,1678037833,205687999,imu1_frame,0,0,0,,-0.21815487904312336,0.13716966606745928,0.8614257002945235,0.4376513387763275,"(0.0, 0.0, 0.0, 0.0, 0.0, 0.0, 0.0, 0.0, 0.0)",-0.019623,-0.277059,-0.47603,"(0.0, 0.0, 0.0, 0.0, 0.0, 0.0, 0.0, 0.0, 0.0)",0.052,-0.771,-9.749,"(0.0, 0.0, 0.0, 0.0, 0.0, 0.0, 0.0, 0.0, 0.0)",0,0,0,,0.0921,-0.0892,0.2558,"(0.0, 0.0, 0.0, 0.0, 0.0, 0.0, 0.0, 0.0, 0.0)","$VNYMR,+126.929,+029.730,+002.995,+00.0921,-00.0892,+00.2558,+00.052,-00.771,-09.749,-00.019623,-00.277059,-00.476030*60
"
1678037833.2391515,7664,1678037833,230630874,imu1_frame,0,0,0,,-0.2186553313811164,0.1320283072748698,0.8599507726529516,0.44186314708327756,"(0.0, 0.0, 0.0, 0.0, 0.0, 0.0, 0.0, 0.0, 0.0)",-0.42997,-0.030315,-0.404068,"(0.0, 0.0, 0.0, 0.0, 0.0, 0.0, 0.0, 0.0, 0.0)",-0.057,-0.397,-10.39,"(0.0, 0.0, 0.0, 0.0, 0.0, 0.0, 0.0, 0.0, 0.0)",0,0,0,,0.095,-0.0893,0.2551,"(0.0, 0.0, 0.0, 0.0, 0.0, 0.0, 0.0, 0.0, 0.0)","$VNYMR,+126.197,+029.521,+002.229,+00.0950,-00.0893,+00.2551,-00.057,-00.397,-10.390,-00.429970,-00.030315,-00.404068*66
"
1678037833.2831023,7665,1678037833,255578517,imu1_frame,0,0,0,,-0.22329338528782008,0.12606581475545195,0.8591978041977595,0.4427489217361211,"(0.0, 0.0, 0.0, 0.0, 0.0, 0.0, 0.0, 0.0, 0.0)",-0.675324,0.174729,-0.098248,"(0.0, 0.0, 0.0, 0.0, 0.0, 0.0, 0.0, 0.0, 0.0)",-0.255,0.265,-9.731,"(0.0, 0.0, 0.0, 0.0, 0.0, 0.0, 0.0, 0.0, 0.0)",0,0,0,,0.095,-0.0893,0.2512,"(0.0, 0.0, 0.0, 0.0, 0.0, 0.0, 0.0, 0.0, 0.0)","$VNYMR,+125.806,+029.692,+001.247,+00.0950,-00.0893,+00.2512,-00.255,+00.265,-09.731,-00.675324,+00.174729,-00.098248*63
"
1678037833.283465,7666,1678037833,280643224,imu1_frame,0,0,0,,-0.22850170780044451,0.1182017207153955,0.860832286619057,0.4390707198919161,"(0.0, 0.0, 0.0, 0.0, 0.0, 0.0, 0.0, 0.0, 0.0)",-0.883637,-0.01459,0.17881,"(0.0, 0.0, 0.0, 0.0, 0.0, 0.0, 0.0, 0.0, 0.0)",-0.498,-0.016,-9.387,"(0.0, 0.0, 0.0, 0.0, 0.0, 0.0, 0.0, 0.0, 0.0)",0,0,0,,0.0928,-0.0974,0.2536,"(0.0, 0.0, 0.0, 0.0, 0.0, 0.0, 0.0, 0.0, 0.0)","$VNYMR,+126.002,+029.815,+000.188,+00.0928,-00.0974,+00.2536,-00.498,-00.016,-09.387,-00.883637,-00.014590,+00.178810*6C
"
1678037833.327137,7667,1678037833,305609703,imu1_frame,0,0,0,,-0.23207874716795665,0.10736231671568965,0.8625697482075774,0.43656181411056555,"(0.0, 0.0, 0.0, 0.0, 0.0, 0.0, 0.0, 0.0, 0.0)",-0.917613,-0.271447,-0.117369,"(0.0, 0.0, 0.0, 0.0, 0.0, 0.0, 0.0, 0.0, 0.0)",-0.295,-0.182,-9.497,"(0.0, 0.0, 0.0, 0.0, 0.0, 0.0, 0.0, 0.0, 0.0)",0,0,0,,0.0934,-0.102,0.2497,"(0.0, 0.0, 0.0, 0.0, 0.0, 0.0, 0.0, 0.0, 0.0)","$VNYMR,+126.007,+029.611,-001.148,+00.0934,-00.1020,+00.2497,-00.295,-00.182,-09.497,-00.917613,-00.271447,-00.117369*6D
"
1678037833.3751025,7668,1678037833,330489397,imu1_frame,0,0,0,,-0.23478663632688995,0.09621505980798517,0.8636761961139887,0.4355241967267969,"(0.0, 0.0, 0.0, 0.0, 0.0, 0.0, 0.0, 0.0, 0.0)",-0.847458,-0.212311,-0.064847,"(0.0, 0.0, 0.0, 0.0, 0.0, 0.0, 0.0, 0.0, 0.0)",-0.308,-0.143,-9.335,"(0.0, 0.0, 0.0, 0.0, 0.0, 0.0, 0.0, 0.0, 0.0)",0,0,0,,0.0948,-0.105,0.2475,"(0.0, 0.0, 0.0, 0.0, 0.0, 0.0, 0.0, 0.0, 0.0)","$VNYMR,+125.821,+029.299,-002.518,+00.0948,-00.1050,+00.2475,-00.308,-00.143,-09.335,-00.847458,-00.212311,-00.064847*69
"
1678037833.3751228,7669,1678037833,356064081,imu1_frame,0,0,0,,-0.23571673407592048,0.08946030283169273,0.8637600363293878,0.4362947113295072,"(0.0, 0.0, 0.0, 0.0, 0.0, 0.0, 0.0, 0.0, 0.0)",-0.168581,-0.187588,-0.339251,"(0.0, 0.0, 0.0, 0.0, 0.0, 0.0, 0.0, 0.0, 0.0)",-0.383,-1.329,-9.135,"(0.0, 0.0, 0.0, 0.0, 0.0, 0.0, 0.0, 0.0, 0.0)",0,0,0,,0.0969,-0.1103,0.2453,"(0.0, 0.0, 0.0, 0.0, 0.0, 0.0, 0.0, 0.0, 0.0)","$VNYMR,+125.534,+029.030,-003.353,+00.0969,-00.1103,+00.2453,-00.383,-01.329,-09.135,-00.168581,-00.187588,-00.339251*69
"
1678037833.4191337,7670,1678037833,381332635,imu1_frame,0,0,0,,-0.2318786243272297,0.08928299927125195,0.8611288324272556,0.443529010983174,"(0.0, 0.0, 0.0, 0.0, 0.0, 0.0, 0.0, 0.0, 0.0)",0.470206,-0.287183,-0.698617,"(0.0, 0.0, 0.0, 0.0, 0.0, 0.0, 0.0, 0.0, 0.0)",-0.012,-0.044,-9.537,"(0.0, 0.0, 0.0, 0.0, 0.0, 0.0, 0.0, 0.0, 0.0)",0,0,0,,0.0998,-0.1051,0.2437,"(0.0, 0.0, 0.0, 0.0, 0.0, 0.0, 0.0, 0.0, 0.0)","$VNYMR,+124.634,+028.591,-003.390,+00.0998,-00.1051,+00.2437,-00.012,-00.044,-09.537,+00.470206,-00.287183,-00.698617*63
"
1678037833.419158,7671,1678037833,406332254,imu1_frame,0,0,0,,-0.22844450937351937,0.08997417698578983,0.8574548347366547,0.4522045554829784,"(0.0, 0.0, 0.0, 0.0, 0.0, 0.0, 0.0, 0.0, 0.0)",0.355598,-0.212927,-0.652047,"(0.0, 0.0, 0.0, 0.0, 0.0, 0.0, 0.0, 0.0, 0.0)",-0.675,0.506,-9.119,"(0.0, 0.0, 0.0, 0.0, 0.0, 0.0, 0.0, 0.0, 0.0)",0,0,0,,0.102,-0.1007,0.2477,"(0.0, 0.0, 0.0, 0.0, 0.0, 0.0, 0.0, 0.0, 0.0)","$VNYMR,+123.531,+028.238,-003.404,+00.1020,-00.1007,+00.2477,-00.675,+00.506,-09.119,+00.355598,-00.212927,-00.652047*65
"
1678037833.4631126,7672,1678037833,431187629,imu1_frame,0,0,0,,-0.22424409579724092,0.08839033233564658,0.8545149514927042,0.46011512942424904,"(0.0, 0.0, 0.0, 0.0, 0.0, 0.0, 0.0, 0.0, 0.0)",0.031722,-0.462078,-0.689591,"(0.0, 0.0, 0.0, 0.0, 0.0, 0.0, 0.0, 0.0, 0.0)",-0.301,-0.674,-8.657,"(0.0, 0.0, 0.0, 0.0, 0.0, 0.0, 0.0, 0.0, 0.0)",0,0,0,,0.1048,-0.1023,0.2416,"(0.0, 0.0, 0.0, 0.0, 0.0, 0.0, 0.0, 0.0, 0.0)","$VNYMR,+122.517,+027.683,-003.580,+00.1048,-00.1023,+00.2416,-00.301,-00.674,-08.657,+00.031722,-00.462078,-00.689591*6B
"
1678037833.4631326,7673,1678037833,456181049,imu1_frame,0,0,0,,-0.2182190259201912,0.08500688914904,0.8513980997587934,0.46933523333621735,"(0.0, 0.0, 0.0, 0.0, 0.0, 0.0, 0.0, 0.0, 0.0)",0.135762,-0.561383,-0.819105,"(0.0, 0.0, 0.0, 0.0, 0.0, 0.0, 0.0, 0.0, 0.0)",-0.59,-0.113,-9.543,"(0.0, 0.0, 0.0, 0.0, 0.0, 0.0, 0.0, 0.0, 0.0)",0,0,0,,0.1113,-0.0934,0.2441,"(0.0, 0.0, 0.0, 0.0, 0.0, 0.0, 0.0, 0.0, 0.0)","$VNYMR,+121.347,+026.832,-003.861,+00.1113,-00.0934,+00.2441,-00.590,-00.113,-09.543,+00.135762,-00.561383,-00.819105*6A
"
1678037833.5071616,7674,1678037833,481163263,imu1_frame,0,0,0,,-0.21318607328343125,0.08101189031330207,0.8482117687365253,0.47804347831835603,"(0.0, 0.0, 0.0, 0.0, 0.0, 0.0, 0.0, 0.0, 0.0)",0.069972,-0.459121,-0.644649,"(0.0, 0.0, 0.0, 0.0, 0.0, 0.0, 0.0, 0.0, 0.0)",-0.386,0.505,-9.998,"(0.0, 0.0, 0.0, 0.0, 0.0, 0.0, 0.0, 0.0, 0.0)",0,0,0,,0.1162,-0.0965,0.242,"(0.0, 0.0, 0.0, 0.0, 0.0, 0.0, 0.0, 0.0, 0.0)","$VNYMR,+120.209,+026.047,-004.238,+00.1162,-00.0965,+00.2420,-00.386,+00.505,-09.998,+00.069972,-00.459121,-00.644649*6E
"
1678037833.5092468,7675,1678037833,506120920,imu1_frame,0,0,0,,-0.21026234564477758,0.07774094610580169,0.8461248778453276,0.4835481179714799,"(0.0, 0.0, 0.0, 0.0, 0.0, 0.0, 0.0, 0.0, 0.0)",-0.020774,-0.212278,-0.410718,"(0.0, 0.0, 0.0, 0.0, 0.0, 0.0, 0.0, 0.0, 0.0)",-0.361,-0.079,-10.861,"(0.0, 0.0, 0.0, 0.0, 0.0, 0.0, 0.0, 0.0, 0.0)",0,0,0,,0.1198,-0.0877,0.2404,"(0.0, 0.0, 0.0, 0.0, 0.0, 0.0, 0.0, 0.0, 0.0)","$VNYMR,+119.471,+025.531,-004.563,+00.1198,-00.0877,+00.2404,-00.361,-00.079,-10.861,-00.020774,-00.212278,-00.410718*6F
"
1678037833.5550742,7676,1678037833,531099319,imu1_frame,0,0,0,,-0.21179473093901663,0.07665319872492521,0.8429115260333243,0.4886383512904809,"(0.0, 0.0, 0.0, 0.0, 0.0, 0.0, 0.0, 0.0, 0.0)",0.004558,0.242433,-0.572802,"(0.0, 0.0, 0.0, 0.0, 0.0, 0.0, 0.0, 0.0, 0.0)",-0.76,-0.172,-10.191,"(0.0, 0.0, 0.0, 0.0, 0.0, 0.0, 0.0, 0.0, 0.0)",0,0,0,,0.1184,-0.0869,0.2396,"(0.0, 0.0, 0.0, 0.0, 0.0, 0.0, 0.0, 0.0, 0.0)","$VNYMR,+118.674,+025.592,-004.946,+00.1184,-00.0869,+00.2396,-00.760,-00.172,-10.191,+00.004558,+00.242433,-00.572802*6B
"
1678037833.5990672,7677,1678037833,556045293,imu1_frame,0,0,0,,-0.21473618420212318,0.07678903961684999,0.8376380842396702,0.49634086515249654,"(0.0, 0.0, 0.0, 0.0, 0.0, 0.0, 0.0, 0.0, 0.0)",-0.062272,0.23185,-0.812444,"(0.0, 0.0, 0.0, 0.0, 0.0, 0.0, 0.0, 0.0, 0.0)",-0.283,0.197,-9.297,"(0.0, 0.0, 0.0, 0.0, 0.0, 0.0, 0.0, 0.0, 0.0)",0,0,0,,0.1177,-0.0876,0.2427,"(0.0, 0.0, 0.0, 0.0, 0.0, 0.0, 0.0, 0.0, 0.0)","$VNYMR,+117.465,+025.847,-005.389,+00.1177,-00.0876,+00.2427,-00.283,+00.197,-09.297,-00.062272,+00.231850,-00.812444*6D
"
1678037833.599091,7678,1678037833,580988168,imu1_frame,0,0,0,,-0.21738211810315708,0.07205742959793562,0.8334097324378528,0.5029721259141409,"(0.0, 0.0, 0.0, 0.0, 0.0, 0.0, 0.0, 0.0, 0.0)",-0.373926,-0.124764,-0.526517,"(0.0, 0.0, 0.0, 0.0, 0.0, 0.0, 0.0, 0.0, 0.0)",-0.448,2.217,-9.085,"(0.0, 0.0, 0.0, 0.0, 0.0, 0.0, 0.0, 0.0, 0.0)",0,0,0,,0.1199,-0.084,0.2396,"(0.0, 0.0, 0.0, 0.0, 0.0, 0.0, 0.0, 0.0, 0.0)","$VNYMR,+116.338,+025.774,-006.284,+00.1199,-00.0840,+00.2396,-00.448,+02.217,-09.085,-00.373926,-00.124764,-00.526517*6F
"
1678037833.6430206,7679,1678037833,605958700,imu1_frame,0,0,0,,-0.21546225812207243,0.06915984900278653,0.8326804668348966,0.50540693580764,"(0.0, 0.0, 0.0, 0.0, 0.0, 0.0, 0.0, 0.0, 0.0)",-0.026835,-0.271125,-0.108411,"(0.0, 0.0, 0.0, 0.0, 0.0, 0.0, 0.0, 0.0, 0.0)",-0.532,0.668,-9.223,"(0.0, 0.0, 0.0, 0.0, 0.0, 0.0, 0.0, 0.0, 0.0)",0,0,0,,0.1227,-0.0848,0.2366,"(0.0, 0.0, 0.0, 0.0, 0.0, 0.0, 0.0, 0.0, 0.0)","$VNYMR,+116.017,+025.387,-006.522,+00.1227,-00.0848,+00.2366,-00.532,+00.668,-09.223,-00.026835,-00.271125,-00.108411*60
"
1678037833.6430504,7680,1678037833,630880355,imu1_frame,0,0,0,,-0.2122292732954667,0.06656162142606672,0.8327229652548264,0.5070510321918498,"(0.0, 0.0, 0.0, 0.0, 0.0, 0.0, 0.0, 0.0, 0.0)",0.029369,-0.372028,-0.183598,"(0.0, 0.0, 0.0, 0.0, 0.0, 0.0, 0.0, 0.0, 0.0)",-0.616,0.403,-8.869,"(0.0, 0.0, 0.0, 0.0, 0.0, 0.0, 0.0, 0.0, 0.0)",0,0,0,,0.1241,-0.0885,0.2438,"(0.0, 0.0, 0.0, 0.0, 0.0, 0.0, 0.0, 0.0, 0.0)","$VNYMR,+115.865,+024.895,-006.607,+00.1241,-00.0885,+00.2438,-00.616,+00.403,-08.869,+00.029369,-00.372028,-00.183598*67
"
1678037833.6870773,7681,1678037833,655865192,imu1_frame,0,0,0,,-0.20629492781675435,0.06572000527897887,0.8326646309102022,0.5096988288140244,"(0.0, 0.0, 0.0, 0.0, 0.0, 0.0, 0.0, 0.0, 0.0)",0.214517,-0.459804,-0.11404,"(0.0, 0.0, 0.0, 0.0, 0.0, 0.0, 0.0, 0.0, 0.0)",-0.664,0.54,-9.639,"(0.0, 0.0, 0.0, 0.0, 0.0, 0.0, 0.0, 0.0, 0.0)",0,0,0,,0.1277,-0.0834,0.2391,"(0.0, 0.0, 0.0, 0.0, 0.0, 0.0, 0.0, 0.0, 0.0)","$VNYMR,+115.691,+024.239,-006.350,+00.1277,-00.0834,+00.2391,-00.664,+00.540,-09.639,+00.214517,-00.459804,-00.114040*6E
"
1678037833.6870973,7682,1678037833,680799007,imu1_frame,0,0,0,,-0.2016118409169959,0.06460523758779396,0.8336572256570224,0.5100925984447542,"(0.0, 0.0, 0.0, 0.0, 0.0, 0.0, 0.0, 0.0, 0.0)",0.048907,-0.276346,0.089146,"(0.0, 0.0, 0.0, 0.0, 0.0, 0.0, 0.0, 0.0, 0.0)",-0.734,-0.158,-10.536,"(0.0, 0.0, 0.0, 0.0, 0.0, 0.0, 0.0, 0.0, 0.0)",0,0,0,,0.1277,-0.0849,0.2384,"(0.0, 0.0, 0.0, 0.0, 0.0, 0.0, 0.0, 0.0, 0.0)","$VNYMR,+115.787,+023.707,-006.142,+00.1277,-00.0849,+00.2384,-00.734,-00.158,-10.536,+00.048907,-00.276346,+00.089146*67
"
1678037833.731301,7683,1678037833,705771446,imu1_frame,0,0,0,,-0.2008268413172796,0.06479319648776385,0.8341264087346034,0.5096111809477257,"(0.0, 0.0, 0.0, 0.0, 0.0, 0.0, 0.0, 0.0, 0.0)",0.045279,0.079995,0.008923,"(0.0, 0.0, 0.0, 0.0, 0.0, 0.0, 0.0, 0.0, 0.0)",-0.73,-0.889,-9.845,"(0.0, 0.0, 0.0, 0.0, 0.0, 0.0, 0.0, 0.0, 0.0)",0,0,0,,0.1305,-0.0849,0.2385,"(0.0, 0.0, 0.0, 0.0, 0.0, 0.0, 0.0, 0.0, 0.0)","$VNYMR,+115.886,+023.645,-006.053,+00.1305,-00.0849,+00.2385,-00.730,-00.889,-09.845,+00.045279,+00.079995,+00.008923*68
"
1678037833.7340698,7684,1678037833,731276988,imu1_frame,0,0,0,,-0.20117368776855626,0.06602907092909532,0.8331343390975743,0.5109368670964036,"(0.0, 0.0, 0.0, 0.0, 0.0, 0.0, 0.0, 0.0, 0.0)",0.148404,0.041483,-0.207755,"(0.0, 0.0, 0.0, 0.0, 0.0, 0.0, 0.0, 0.0, 0.0)",-0.862,-0.704,-9.031,"(0.0, 0.0, 0.0, 0.0, 0.0, 0.0, 0.0, 0.0, 0.0)",0,0,0,,0.1284,-0.0819,0.2384,"(0.0, 0.0, 0.0, 0.0, 0.0, 0.0, 0.0, 0.0, 0.0)","$VNYMR,+115.700,+023.746,-005.992,+00.1284,-00.0819,+00.2384,-00.862,-00.704,-09.031,+00.148404,+00.041483,-00.207755*6C
"
1678037833.7750764,7685,1678037833,755693674,imu1_frame,0,0,0,,-0.20024677579395128,0.06759273451609318,0.8313079568862334,0.5140617976881768,"(0.0, 0.0, 0.0, 0.0, 0.0, 0.0, 0.0, 0.0, 0.0)",0.282851,0.034243,-0.197276,"(0.0, 0.0, 0.0, 0.0, 0.0, 0.0, 0.0, 0.0, 0.0)",-0.79,0.747,-9.71,"(0.0, 0.0, 0.0, 0.0, 0.0, 0.0, 0.0, 0.0, 0.0)",0,0,0,,0.1299,-0.0783,0.2344,"(0.0, 0.0, 0.0, 0.0, 0.0, 0.0, 0.0, 0.0, 0.0)","$VNYMR,+115.304,+023.730,-005.862,+00.1299,-00.0783,+00.2344,-00.790,+00.747,-09.710,+00.282851,+00.034243,-00.197276*67
"
1678037833.8197048,7686,1678037833,780637979,imu1_frame,0,0,0,,-0.20068406946032205,0.06984387657365804,0.8306383163615253,0.5146724439506151,"(0.0, 0.0, 0.0, 0.0, 0.0, 0.0, 0.0, 0.0, 0.0)",0.141113,0.171759,0.042422,"(0.0, 0.0, 0.0, 0.0, 0.0, 0.0, 0.0, 0.0, 0.0)",-0.741,0.329,-9.175,"(0.0, 0.0, 0.0, 0.0, 0.0, 0.0, 0.0, 0.0, 0.0)",0,0,0,,0.1284,-0.0841,0.24,"(0.0, 0.0, 0.0, 0.0, 0.0, 0.0, 0.0, 0.0, 0.0)","$VNYMR,+115.230,+023.909,-005.684,+00.1284,-00.0841,+00.2400,-00.741,+00.329,-09.175,+00.141113,+00.171759,+00.042422*69
"
1678037833.8197384,7687,1678037833,805595159,imu1_frame,0,0,0,,-0.20051919604713114,0.07280828553281277,0.8303478802924771,0.5147945252896291,"(0.0, 0.0, 0.0, 0.0, 0.0, 0.0, 0.0, 0.0, 0.0)",0.230506,0.057548,0.010205,"(0.0, 0.0, 0.0, 0.0, 0.0, 0.0, 0.0, 0.0, 0.0)",-0.744,0.222,-8.837,"(0.0, 0.0, 0.0, 0.0, 0.0, 0.0, 0.0, 0.0, 0.0)",0,0,0,,0.1278,-0.0789,0.2367,"(0.0, 0.0, 0.0, 0.0, 0.0, 0.0, 0.0, 0.0, 0.0)","$VNYMR,+115.257,+024.077,-005.376,+00.1278,-00.0789,+00.2367,-00.744,+00.222,-08.837,+00.230506,+00.057548,+00.010205*6E
"
1678037833.867075,7688,1678037833,830504894,imu1_frame,0,0,0,,-0.1992730876766165,0.07566490265991119,0.8305128016895859,0.5146003743323634,"(0.0, 0.0, 0.0, 0.0, 0.0, 0.0, 0.0, 0.0, 0.0)",0.173192,0.055919,0.162962,"(0.0, 0.0, 0.0, 0.0, 0.0, 0.0, 0.0, 0.0, 0.0)",-0.67,0.419,-9.3,"(0.0, 0.0, 0.0, 0.0, 0.0, 0.0, 0.0, 0.0, 0.0)",0,0,0,,0.1256,-0.0789,0.2358,"(0.0, 0.0, 0.0, 0.0, 0.0, 0.0, 0.0, 0.0, 0.0)","$VNYMR,+115.366,+024.134,-004.992,+00.1256,-00.0789,+00.2358,-00.670,+00.419,-09.300,+00.173192,+00.055919,+00.162962*65
"
1678037833.8671277,7689,1678037833,855464220,imu1_frame,0,0,0,,-0.19992592049694088,0.07633453956067068,0.831761936862556,0.5122252871248751,"(0.0, 0.0, 0.0, 0.0, 0.0, 0.0, 0.0, 0.0, 0.0)",-0.126801,0.037256,0.20205,"(0.0, 0.0, 0.0, 0.0, 0.0, 0.0, 0.0, 0.0, 0.0)",-0.681,-0.439,-8.539,"(0.0, 0.0, 0.0, 0.0, 0.0, 0.0, 0.0, 0.0, 0.0)",0,0,0,,0.1256,-0.0774,0.2389,"(0.0, 0.0, 0.0, 0.0, 0.0, 0.0, 0.0, 0.0, 0.0)","$VNYMR,+115.695,+024.254,-004.897,+00.1256,-00.0774,+00.2389,-00.681,-00.439,-08.539,-00.126801,+00.037256,+00.202050*68
"
1678037833.9151666,7690,1678037833,881301403,imu1_frame,0,0,0,,-0.1996940044297686,0.07492420452532922,0.832803514653498,0.5108296919246483,"(0.0, 0.0, 0.0, 0.0, 0.0, 0.0, 0.0, 0.0, 0.0)",-0.101223,-0.127899,0.079471,"(0.0, 0.0, 0.0, 0.0, 0.0, 0.0, 0.0, 0.0, 0.0)",-0.81,-0.037,-9.122,"(0.0, 0.0, 0.0, 0.0, 0.0, 0.0, 0.0, 0.0, 0.0)",0,0,0,,0.1242,-0.0773,0.2405,"(0.0, 0.0, 0.0, 0.0, 0.0, 0.0, 0.0, 0.0, 0.0)","$VNYMR,+115.885,+024.152,-004.981,+00.1242,-00.0773,+00.2405,-00.810,-00.037,-09.122,-00.101223,-00.127899,+00.079471*6F
"
1678037833.915199,7691,1678037833,906256914,imu1_frame,0,0,0,,-0.1986184234500093,0.07393039554928849,0.8339186062327146,0.5095731318064615,"(0.0, 0.0, 0.0, 0.0, 0.0, 0.0, 0.0, 0.0, 0.0)",-0.034452,-0.08612,0.161287,"(0.0, 0.0, 0.0, 0.0, 0.0, 0.0, 0.0, 0.0, 0.0)",-0.886,0.135,-9.853,"(0.0, 0.0, 0.0, 0.0, 0.0, 0.0, 0.0, 0.0, 0.0)",0,0,0,,0.1263,-0.0804,0.2359,"(0.0, 0.0, 0.0, 0.0, 0.0, 0.0, 0.0, 0.0, 0.0)","$VNYMR,+116.089,+023.992,-004.968,+00.1263,-00.0804,+00.2359,-00.886,+00.135,-09.853,-00.034452,-00.086120,+00.161287*6A
"
1678037833.963086,7692,1678037833,931214809,imu1_frame,0,0,0,,-0.19773971840503615,0.07448384603384449,0.8349823263862132,0.5080902233538556,"(0.0, 0.0, 0.0, 0.0, 0.0, 0.0, 0.0, 0.0, 0.0)",0.107636,-0.018235,0.132417,"(0.0, 0.0, 0.0, 0.0, 0.0, 0.0, 0.0, 0.0, 0.0)",-1.1,0.264,-9.967,"(0.0, 0.0, 0.0, 0.0, 0.0, 0.0, 0.0, 0.0, 0.0)",0,0,0,,0.1256,-0.0811,0.2382,"(0.0, 0.0, 0.0, 0.0, 0.0, 0.0, 0.0, 0.0, 0.0)","$VNYMR,+116.339,+023.948,-004.805,+00.1256,-00.0811,+00.2382,-01.100,+00.264,-09.967,+00.107636,-00.018235,+00.132417*62
"
1678037833.9631124,7693,1678037833,956175327,imu1_frame,0,0,0,,-0.19757468101277334,0.07569505850134081,0.8362076146729059,0.5059558564778439,"(0.0, 0.0, 0.0, 0.0, 0.0, 0.0, 0.0, 0.0, 0.0)",0.019707,0.058861,0.289856,"(0.0, 0.0, 0.0, 0.0, 0.0, 0.0, 0.0, 0.0, 0.0)",-1.03,0.55,-9.904,"(0.0, 0.0, 0.0, 0.0, 0.0, 0.0, 0.0, 0.0, 0.0)",0,0,0,,0.1235,-0.0774,0.2349,"(0.0, 0.0, 0.0, 0.0, 0.0, 0.0, 0.0, 0.0, 0.0)","$VNYMR,+116.667,+024.018,-004.605,+00.1235,-00.0774,+00.2349,-01.030,+00.550,-09.904,+00.019707,+00.058861,+00.289856*6E
"
1678037834.0071793,7694,1678037833,981162786,imu1_frame,0,0,0,,-0.19881694094000626,0.07693755132907662,0.838472736799546,0.5015136158018273,"(0.0, 0.0, 0.0, 0.0, 0.0, 0.0, 0.0, 0.0, 0.0)",-0.097329,0.148243,0.411108,"(0.0, 0.0, 0.0, 0.0, 0.0, 0.0, 0.0, 0.0, 0.0)",-0.904,-0.64,-9.307,"(0.0, 0.0, 0.0, 0.0, 0.0, 0.0, 0.0, 0.0, 0.0)",0,0,0,,0.1242,-0.0826,0.2382,"(0.0, 0.0, 0.0, 0.0, 0.0, 0.0, 0.0, 0.0, 0.0)","$VNYMR,+117.279,+024.241,-004.428,+00.1242,-00.0826,+00.2382,-00.904,-00.640,-09.307,-00.097329,+00.148243,+00.411108*6D
"
1678037834.0092072,7695,1678037834,6220817,imu1_frame,0,0,0,,-0.1999167383819469,0.07829385349068843,0.8399650844334566,0.49835933537257926,"(0.0, 0.0, 0.0, 0.0, 0.0, 0.0, 0.0, 0.0, 0.0)",0.092328,0.076007,0.193391,"(0.0, 0.0, 0.0, 0.0, 0.0, 0.0, 0.0, 0.0, 0.0)",-1.069,-0.798,-8.594,"(0.0, 0.0, 0.0, 0.0, 0.0, 0.0, 0.0, 0.0, 0.0)",0,0,0,,0.1206,-0.0847,0.2404,"(0.0, 0.0, 0.0, 0.0, 0.0, 0.0, 0.0, 0.0, 0.0)","$VNYMR,+117.713,+024.449,-004.267,+00.1206,-00.0847,+00.2404,-01.069,-00.798,-08.594,+00.092328,+00.076007,+00.193391*62
"
1678037834.0510592,7696,1678037834,31057834,imu1_frame,0,0,0,,-0.19870568818296894,0.0799305849890099,0.8408510942359327,0.49708810928172664,"(0.0, 0.0, 0.0, 0.0, 0.0, 0.0, 0.0, 0.0, 0.0)",0.132868,-0.086352,0.188362,"(0.0, 0.0, 0.0, 0.0, 0.0, 0.0, 0.0, 0.0, 0.0)",-1.257,0.323,-8.784,"(0.0, 0.0, 0.0, 0.0, 0.0, 0.0, 0.0, 0.0, 0.0)",0,0,0,,0.1213,-0.0833,0.2373,"(0.0, 0.0, 0.0, 0.0, 0.0, 0.0, 0.0, 0.0, 0.0)","$VNYMR,+117.958,+024.433,-003.976,+00.1213,-00.0833,+00.2373,-01.257,+00.323,-08.784,+00.132868,-00.086352,+00.188362*64
"
1678037834.0950584,7697,1678037834,56071519,imu1_frame,0,0,0,,-0.19684279382986677,0.08044523737970163,0.8432558567800096,0.4936608535283995,"(0.0, 0.0, 0.0, 0.0, 0.0, 0.0, 0.0, 0.0, 0.0)",-0.100205,-0.113728,0.439721,"(0.0, 0.0, 0.0, 0.0, 0.0, 0.0, 0.0, 0.0, 0.0)",-1.441,-0.092,-9.288,"(0.0, 0.0, 0.0, 0.0, 0.0, 0.0, 0.0, 0.0, 0.0)",0,0,0,,0.1199,-0.0825,0.234,"(0.0, 0.0, 0.0, 0.0, 0.0, 0.0, 0.0, 0.0, 0.0)","$VNYMR,+118.514,+024.293,-003.691,+00.1199,-00.0825,+00.2340,-01.441,-00.092,-09.288,-00.100205,-00.113728,+00.439721*6B
"
1678037834.0950868,7698,1678037834,80975055,imu1_frame,0,0,0,,-0.19588782594152698,0.07861871875652254,0.8469056794046215,0.4880551473974855,"(0.0, 0.0, 0.0, 0.0, 0.0, 0.0, 0.0, 0.0, 0.0)",-0.214959,-0.19113,0.409274,"(0.0, 0.0, 0.0, 0.0, 0.0, 0.0, 0.0, 0.0, 0.0)",-1.551,-1.479,-9.556,"(0.0, 0.0, 0.0, 0.0, 0.0, 0.0, 0.0, 0.0, 0.0)",0,0,0,,0.1206,-0.0848,0.2341,"(0.0, 0.0, 0.0, 0.0, 0.0, 0.0, 0.0, 0.0, 0.0)","$VNYMR,+119.313,+024.113,-003.646,+00.1206,-00.0848,+00.2341,-01.551,-01.479,-09.556,-00.214959,-00.191130,+00.409274*66
"
1678037834.1390688,7699,1678037834,105892658,imu1_frame,0,0,0,,-0.1953484973387006,0.07696025732633488,0.848493496779313,0.4857724460104647,"(0.0, 0.0, 0.0, 0.0, 0.0, 0.0, 0.0, 0.0, 0.0)",-0.05461,-0.027742,0.050353,"(0.0, 0.0, 0.0, 0.0, 0.0, 0.0, 0.0, 0.0, 0.0)",-1.489,-0.753,-10.199,"(0.0, 0.0, 0.0, 0.0, 0.0, 0.0, 0.0, 0.0, 0.0)",0,0,0,,0.1198,-0.087,0.2333,"(0.0, 0.0, 0.0, 0.0, 0.0, 0.0, 0.0, 0.0, 0.0)","$VNYMR,+119.628,+023.971,-003.714,+00.1198,-00.0870,+00.2333,-01.489,-00.753,-10.199,-00.054610,-00.027742,+00.050353*6A
"
1678037834.1390896,7700,1678037834,130832672,imu1_frame,0,0,0,,-0.19733428668660513,0.07690970900819896,0.8490390580856234,0.4840214394045375,"(0.0, 0.0, 0.0, 0.0, 0.0, 0.0, 0.0, 0.0, 0.0)",-0.205024,0.210741,0.247175,"(0.0, 0.0, 0.0, 0.0, 0.0, 0.0, 0.0, 0.0, 0.0)",-1.12,0.339,-9.195,"(0.0, 0.0, 0.0, 0.0, 0.0, 0.0, 0.0, 0.0, 0.0)",0,0,0,,0.1184,-0.0914,0.2349,"(0.0, 0.0, 0.0, 0.0, 0.0, 0.0, 0.0, 0.0, 0.0)","$VNYMR,+119.813,+024.176,-003.798,+00.1184,-00.0914,+00.2349,-01.120,+00.339,-09.195,-00.205024,+00.210741,+00.247175*69
"
1678037834.1831148,7701,1678037834,155863285,imu1_frame,0,0,0,,-0.1998216752415357,0.07639540052328261,0.8507282861353997,0.4801004312138022,"(0.0, 0.0, 0.0, 0.0, 0.0, 0.0, 0.0, 0.0, 0.0)",-0.127578,0.059225,0.288442,"(0.0, 0.0, 0.0, 0.0, 0.0, 0.0, 0.0, 0.0, 0.0)",-1.118,-0.66,-8.141,"(0.0, 0.0, 0.0, 0.0, 0.0, 0.0, 0.0, 0.0, 0.0)",0,0,0,,0.1177,-0.0863,0.2308,"(0.0, 0.0, 0.0, 0.0, 0.0, 0.0, 0.0, 0.0, 0.0)","$VNYMR,+120.281,+024.415,-003.897,+00.1177,-00.0863,+00.2308,-01.118,-00.660,-08.141,-00.127578,+00.059225,+00.288442*63
"
1678037834.1833956,7702,1678037834,180743217,imu1_frame,0,0,0,,-0.1988853615052775,0.07659546254115636,0.851826475076404,0.4785074758621123,"(0.0, 0.0, 0.0, 0.0, 0.0, 0.0, 0.0, 0.0, 0.0)",0.105223,-0.119355,0.077769,"(0.0, 0.0, 0.0, 0.0, 0.0, 0.0, 0.0, 0.0, 0.0)",-1.312,-0.359,-8.824,"(0.0, 0.0, 0.0, 0.0, 0.0, 0.0, 0.0, 0.0, 0.0)",0,0,0,,0.1155,-0.0892,0.2308,"(0.0, 0.0, 0.0, 0.0, 0.0, 0.0, 0.0, 0.0, 0.0)","$VNYMR,+120.538,+024.339,-003.766,+00.1155,-00.0892,+00.2308,-01.312,-00.359,-08.824,+00.105223,-00.119355,+00.077769*6F
"
1678037834.2310574,7703,1678037834,205690860,imu1_frame,0,0,0,,-0.19689363591366074,0.07665909889255212,0.8528237851625221,0.4775435793252267,"(0.0, 0.0, 0.0, 0.0, 0.0, 0.0, 0.0, 0.0, 0.0)",-0.004093,-0.146639,0.198689,"(0.0, 0.0, 0.0, 0.0, 0.0, 0.0, 0.0, 0.0, 0.0)",-1.453,0.59,-9.619,"(0.0, 0.0, 0.0, 0.0, 0.0, 0.0, 0.0, 0.0, 0.0)",0,0,0,,0.1162,-0.0907,0.2301,"(0.0, 0.0, 0.0, 0.0, 0.0, 0.0, 0.0, 0.0, 0.0)","$VNYMR,+120.736,+024.145,-003.600,+00.1162,-00.0907,+00.2301,-01.453,+00.590,-09.619,-00.004093,-00.146639,+00.198689*68
"
1678037834.2750647,7704,1678037834,230751514,imu1_frame,0,0,0,,-0.19537756095554865,0.07637475738290861,0.8547165551650416,0.4748200874400397,"(0.0, 0.0, 0.0, 0.0, 0.0, 0.0, 0.0, 0.0, 0.0)",0.034454,-0.105549,0.243048,"(0.0, 0.0, 0.0, 0.0, 0.0, 0.0, 0.0, 0.0, 0.0)",-1.686,-0.067,-10.108,"(0.0, 0.0, 0.0, 0.0, 0.0, 0.0, 0.0, 0.0, 0.0)",0,0,0,,0.1148,-0.0899,0.2363,"(0.0, 0.0, 0.0, 0.0, 0.0, 0.0, 0.0, 0.0, 0.0)","$VNYMR,+121.160,+023.986,-003.450,+00.1148,-00.0899,+00.2363,-01.686,-00.067,-10.108,+00.034454,-00.105549,+00.243048*68
"
1678037834.2750804,7705,1678037834,255739927,imu1_frame,0,0,0,,-0.19470210521927064,0.07679663226631542,0.8561773957327314,0.47239139972278726,"(0.0, 0.0, 0.0, 0.0, 0.0, 0.0, 0.0, 0.0, 0.0)",-0.008306,-0.011696,0.212723,"(0.0, 0.0, 0.0, 0.0, 0.0, 0.0, 0.0, 0.0, 0.0)",-1.722,-0.392,-9.886,"(0.0, 0.0, 0.0, 0.0, 0.0, 0.0, 0.0, 0.0, 0.0)",0,0,0,,0.1162,-0.0952,0.2285,"(0.0, 0.0, 0.0, 0.0, 0.0, 0.0, 0.0, 0.0, 0.0)","$VNYMR,+121.527,+023.951,-003.290,+00.1162,-00.0952,+00.2285,-01.722,-00.392,-09.886,-00.008306,-00.011696,+00.212723*6B
"
1678037834.3193057,7706,1678037834,280663728,imu1_frame,0,0,0,,-0.1942214876772542,0.07800172401833236,0.856815435184404,0.47123354592427164,"(0.0, 0.0, 0.0, 0.0, 0.0, 0.0, 0.0, 0.0, 0.0)",0.140074,0.037867,0.06185,"(0.0, 0.0, 0.0, 0.0, 0.0, 0.0, 0.0, 0.0, 0.0)",-1.814,-0.291,-9.81,"(0.0, 0.0, 0.0, 0.0, 0.0, 0.0, 0.0, 0.0, 0.0)",0,0,0,,0.1141,-0.0921,0.2323,"(0.0, 0.0, 0.0, 0.0, 0.0, 0.0, 0.0, 0.0, 0.0)","$VNYMR,+121.722,+023.975,-003.098,+00.1141,-00.0921,+00.2323,-01.814,-00.291,-09.810,+00.140074,+00.037867,+00.061850*6D
"
1678037834.319343,7707,1678037834,305636405,imu1_frame,0,0,0,,-0.19345514194132418,0.08048033607100055,0.8567943940224494,0.47117023455866197,"(0.0, 0.0, 0.0, 0.0, 0.0, 0.0, 0.0, 0.0, 0.0)",0.157206,0.027332,0.082041,"(0.0, 0.0, 0.0, 0.0, 0.0, 0.0, 0.0, 0.0, 0.0)",-1.757,0.488,-9.451,"(0.0, 0.0, 0.0, 0.0, 0.0, 0.0, 0.0, 0.0, 0.0)",0,0,0,,0.1127,-0.0943,0.2339,"(0.0, 0.0, 0.0, 0.0, 0.0, 0.0, 0.0, 0.0, 0.0)","$VNYMR,+121.792,+024.038,-002.786,+00.1127,-00.0943,+00.2339,-01.757,+00.488,-09.451,+00.157206,+00.027332,+00.082041*60
"
1678037834.3670185,7708,1678037834,330571889,imu1_frame,0,0,0,,-0.19180786717519283,0.08220241261892981,0.8576240332484842,0.4700356614597809,"(0.0, 0.0, 0.0, 0.0, 0.0, 0.0, 0.0, 0.0, 0.0)",0.181406,-0.09022,0.167711,"(0.0, 0.0, 0.0, 0.0, 0.0, 0.0, 0.0, 0.0, 0.0)",-1.752,-0.022,-9.975,"(0.0, 0.0, 0.0, 0.0, 0.0, 0.0, 0.0, 0.0, 0.0)",0,0,0,,0.1141,-0.0906,0.2315,"(0.0, 0.0, 0.0, 0.0, 0.0, 0.0, 0.0, 0.0, 0.0)","$VNYMR,+122.025,+023.971,-002.466,+00.1141,-00.0906,+00.2315,-01.752,-00.022,-09.975,+00.181406,-00.090220,+00.167711*68
"
1678037834.367037,7709,1678037834,356425523,imu1_frame,0,0,0,,-0.19004277022774863,0.08317011970061308,0.8584687261562393,0.4690393617649084,"(0.0, 0.0, 0.0, 0.0, 0.0, 0.0, 0.0, 0.0, 0.0)",0.066059,-0.074026,0.066752,"(0.0, 0.0, 0.0, 0.0, 0.0, 0.0, 0.0, 0.0, 0.0)",-1.834,-0.808,-10.483,"(0.0, 0.0, 0.0, 0.0, 0.0, 0.0, 0.0, 0.0, 0.0)",0,0,0,,0.1127,-0.0891,0.2338,"(0.0, 0.0, 0.0, 0.0, 0.0, 0.0, 0.0, 0.0, 0.0)","$VNYMR,+122.229,+023.848,-002.223,+00.1127,-00.0891,+00.2338,-01.834,-00.808,-10.483,+00.066059,-00.074026,+00.066752*66
"
1678037834.4070938,7710,1678037834,381448268,imu1_frame,0,0,0,,-0.19023926040924127,0.08278108424275235,0.8582302623159935,0.46946473002299166,"(0.0, 0.0, 0.0, 0.0, 0.0, 0.0, 0.0, 0.0, 0.0)",-0.081997,0.080805,-0.120945,"(0.0, 0.0, 0.0, 0.0, 0.0, 0.0, 0.0, 0.0, 0.0)",-1.739,-0.652,-10.85,"(0.0, 0.0, 0.0, 0.0, 0.0, 0.0, 0.0, 0.0, 0.0)",0,0,0,,0.1155,-0.09,0.2284,"(0.0, 0.0, 0.0, 0.0, 0.0, 0.0, 0.0, 0.0, 0.0)","$VNYMR,+122.158,+023.845,-002.289,+00.1155,-00.0900,+00.2284,-01.739,-00.652,-10.850,-00.081997,+00.080805,-00.120945*68
"
1678037834.4084947,7711,1678037834,405400276,imu1_frame,0,0,0,,-0.19343076935198006,0.0828343167568499,0.856705685149779,0.47093352234405117,"(0.0, 0.0, 0.0, 0.0, 0.0, 0.0, 0.0, 0.0, 0.0)",-0.089105,0.342894,-0.187418,"(0.0, 0.0, 0.0, 0.0, 0.0, 0.0, 0.0, 0.0, 0.0)",-1.5,-0.007,-10.421,"(0.0, 0.0, 0.0, 0.0, 0.0, 0.0, 0.0, 0.0, 0.0)",0,0,0,,0.112,-0.0928,0.2323,"(0.0, 0.0, 0.0, 0.0, 0.0, 0.0, 0.0, 0.0, 0.0)","$VNYMR,+121.863,+024.170,-002.529,+00.1120,-00.0928,+00.2323,-01.500,-00.007,-10.421,-00.089105,+00.342894,-00.187418*69
"
1678037834.4511187,7712,1678037834,431289196,imu1_frame,0,0,0,,-0.19885273362823613,0.08348435580332524,0.8547907799714749,0.47203884918557193,"(0.0, 0.0, 0.0, 0.0, 0.0, 0.0, 0.0, 0.0, 0.0)",-0.171867,0.410546,-0.174041,"(0.0, 0.0, 0.0, 0.0, 0.0, 0.0, 0.0, 0.0, 0.0)",-1.32,0.479,-8.733,"(0.0, 0.0, 0.0, 0.0, 0.0, 0.0, 0.0, 0.0, 0.0)",0,0,0,,0.1106,-0.0883,0.2321,"(0.0, 0.0, 0.0, 0.0, 0.0, 0.0, 0.0, 0.0, 0.0)","$VNYMR,+121.559,+024.757,-002.841,+00.1106,-00.0883,+00.2321,-01.320,+00.479,-08.733,-00.171867,+00.410546,-00.174041*60
"
1678037834.4950666,7713,1678037834,456234931,imu1_frame,0,0,0,,-0.20313210318973804,0.08244449601453997,0.8538831852475042,0.4720421164283954,"(0.0, 0.0, 0.0, 0.0, 0.0, 0.0, 0.0, 0.0, 0.0)",-0.268508,0.165267,-0.008634,"(0.0, 0.0, 0.0, 0.0, 0.0, 0.0, 0.0, 0.0, 0.0)",-1.087,0.845,-8.359,"(0.0, 0.0, 0.0, 0.0, 0.0, 0.0, 0.0, 0.0, 0.0)",0,0,0,,0.1084,-0.0891,0.2265,"(0.0, 0.0, 0.0, 0.0, 0.0, 0.0, 0.0, 0.0, 0.0)","$VNYMR,+121.411,+025.134,-003.228,+00.1084,-00.0891,+00.2265,-01.087,+00.845,-08.359,-00.268508,+00.165267,-00.008634*65
"
1678037834.495091,7714,1678037834,481216907,imu1_frame,0,0,0,,-0.20519607817298616,0.08040691823879526,0.8543003666728901,0.47074428355990805,"(0.0, 0.0, 0.0, 0.0, 0.0, 0.0, 0.0, 0.0, 0.0)",-0.257267,0.041497,0.095599,"(0.0, 0.0, 0.0, 0.0, 0.0, 0.0, 0.0, 0.0, 0.0)",-1.081,0.319,-9.049,"(0.0, 0.0, 0.0, 0.0, 0.0, 0.0, 0.0, 0.0, 0.0)",0,0,0,,0.1091,-0.0913,0.2282,"(0.0, 0.0, 0.0, 0.0, 0.0, 0.0, 0.0, 0.0, 0.0)","$VNYMR,+121.496,+025.233,-003.537,+00.1091,-00.0913,+00.2282,-01.081,+00.319,-09.049,-00.257267,+00.041497,+00.095599*6C
"
1678037834.5392058,7715,1678037834,506153821,imu1_frame,0,0,0,,-0.2065460657683711,0.07880566964148664,0.854620912129943,0.469841979497521,"(0.0, 0.0, 0.0, 0.0, 0.0, 0.0, 0.0, 0.0, 0.0)",-0.082148,0.050289,-0.025355,"(0.0, 0.0, 0.0, 0.0, 0.0, 0.0, 0.0, 0.0, 0.0)",-1.193,0.136,-9.65,"(0.0, 0.0, 0.0, 0.0, 0.0, 0.0, 0.0, 0.0, 0.0)",0,0,0,,0.1077,-0.0913,0.2289,"(0.0, 0.0, 0.0, 0.0, 0.0, 0.0, 0.0, 0.0, 0.0)","$VNYMR,+121.554,+025.283,-003.766,+00.1077,-00.0913,+00.2289,-01.193,+00.136,-09.650,-00.082148,+00.050289,-00.025355*68
"
1678037834.5392292,7716,1678037834,531134128,imu1_frame,0,0,0,,-0.20825441281138563,0.07778466535117087,0.854676600428156,0.46915621498746185,"(0.0, 0.0, 0.0, 0.0, 0.0, 0.0, 0.0, 0.0, 0.0)",-0.229108,0.086759,0.064999,"(0.0, 0.0, 0.0, 0.0, 0.0, 0.0, 0.0, 0.0, 0.0)",-1.175,0.29,-9.462,"(0.0, 0.0, 0.0, 0.0, 0.0, 0.0, 0.0, 0.0, 0.0)",0,0,0,,0.1084,-0.0935,0.2321,"(0.0, 0.0, 0.0, 0.0, 0.0, 0.0, 0.0, 0.0, 0.0)","$VNYMR,+121.579,+025.402,-003.964,+00.1084,-00.0935,+00.2321,-01.175,+00.290,-09.462,-00.229108,+00.086759,+00.064999*66
"
1678037834.5830755,7717,1678037834,556082963,imu1_frame,0,0,0,,-0.21061889169822506,0.07578578662740104,0.8550629063851536,0.4677217368577725,"(0.0, 0.0, 0.0, 0.0, 0.0, 0.0, 0.0, 0.0, 0.0)",-0.246856,0.093932,0.044304,"(0.0, 0.0, 0.0, 0.0, 0.0, 0.0, 0.0, 0.0, 0.0)",-1.157,0.022,-9.43,"(0.0, 0.0, 0.0, 0.0, 0.0, 0.0, 0.0, 0.0, 0.0)",0,0,0,,0.1076,-0.098,0.2298,"(0.0, 0.0, 0.0, 0.0, 0.0, 0.0, 0.0, 0.0, 0.0)","$VNYMR,+121.671,+025.536,-004.285,+00.1076,-00.0980,+00.2298,-01.157,+00.022,-09.430,-00.246856,+00.093932,+00.044304*64
"
1678037834.5839944,7718,1678037834,581080913,imu1_frame,0,0,0,,-0.21287945965497587,0.0744172263755764,0.8550951734869815,0.4668582829455217,"(0.0, 0.0, 0.0, 0.0, 0.0, 0.0, 0.0, 0.0, 0.0)",-0.179658,0.11412,0.003158,"(0.0, 0.0, 0.0, 0.0, 0.0, 0.0, 0.0, 0.0, 0.0)",-1.082,0.024,-9.377,"(0.0, 0.0, 0.0, 0.0, 0.0, 0.0, 0.0, 0.0, 0.0)",0,0,0,,0.1055,-0.1002,0.2266,"(0.0, 0.0, 0.0, 0.0, 0.0, 0.0, 0.0, 0.0, 0.0)","$VNYMR,+121.695,+025.693,-004.551,+00.1055,-00.1002,+00.2266,-01.082,+00.024,-09.377,-00.179658,+00.114120,+00.003158*67
"
1678037834.6281052,7719,1678037834,605942010,imu1_frame,0,0,0,,-0.2147102348667953,0.07385533472238809,0.8545235645606832,0.4671556295143979,"(0.0, 0.0, 0.0, 0.0, 0.0, 0.0, 0.0, 0.0, 0.0)",-0.030618,0.13216,-0.106064,"(0.0, 0.0, 0.0, 0.0, 0.0, 0.0, 0.0, 0.0, 0.0)",-1.033,0.577,-9.532,"(0.0, 0.0, 0.0, 0.0, 0.0, 0.0, 0.0, 0.0, 0.0)",0,0,0,,0.1055,-0.098,0.2281,"(0.0, 0.0, 0.0, 0.0, 0.0, 0.0, 0.0, 0.0, 0.0)","$VNYMR,+121.582,+025.846,-004.741,+00.1055,-00.0980,+00.2281,-01.033,+00.577,-09.532,-00.030618,+00.132160,-00.106064*66
"
1678037834.6710887,7720,1678037834,631024122,imu1_frame,0,0,0,,-0.21687434956096938,0.07454742502796191,0.8539008141885845,0.46718475729873626,"(0.0, 0.0, 0.0, 0.0, 0.0, 0.0, 0.0, 0.0, 0.0)",-0.054502,0.215036,0.042986,"(0.0, 0.0, 0.0, 0.0, 0.0, 0.0, 0.0, 0.0, 0.0)",-0.812,1.055,-9.215,"(0.0, 0.0, 0.0, 0.0, 0.0, 0.0, 0.0, 0.0, 0.0)",0,0,0,,0.1033,-0.1024,0.2289,"(0.0, 0.0, 0.0, 0.0, 0.0, 0.0, 0.0, 0.0, 0.0)","$VNYMR,+121.516,+026.106,-004.812,+00.1033,-00.1024,+00.2289,-00.812,+01.055,-09.215,-00.054502,+00.215036,+00.042986*62
"
1678037834.671111,7721,1678037834,655918598,imu1_frame,0,0,0,,-0.21908221358081995,0.07504873181883559,0.8540818052625277,0.46574128168374146,"(0.0, 0.0, 0.0, 0.0, 0.0, 0.0, 0.0, 0.0, 0.0)",-0.037997,0.129959,0.068954,"(0.0, 0.0, 0.0, 0.0, 0.0, 0.0, 0.0, 0.0, 0.0)",-0.757,0.346,-8.933,"(0.0, 0.0, 0.0, 0.0, 0.0, 0.0, 0.0, 0.0, 0.0)",0,0,0,,0.1034,-0.0957,0.228,"(0.0, 0.0, 0.0, 0.0, 0.0, 0.0, 0.0, 0.0, 0.0)","$VNYMR,+121.653,+026.368,-004.858,+00.1034,-00.0957,+00.2280,-00.757,+00.346,-08.933,-00.037997,+00.129959,+00.068954*68
"
1678037834.7152138,7722,1678037834,680967092,imu1_frame,0,0,0,,-0.22050419725486814,0.07589964295578283,0.853953989134986,0.4651663440454555,"(0.0, 0.0, 0.0, 0.0, 0.0, 0.0, 0.0, 0.0, 0.0)",-0.024845,0.113113,0.021674,"(0.0, 0.0, 0.0, 0.0, 0.0, 0.0, 0.0, 0.0, 0.0)",-0.634,0.228,-8.736,"(0.0, 0.0, 0.0, 0.0, 0.0, 0.0, 0.0, 0.0, 0.0)",0,0,0,,0.102,-0.0957,0.2271,"(0.0, 0.0, 0.0, 0.0, 0.0, 0.0, 0.0, 0.0, 0.0)","$VNYMR,+121.700,+026.565,-004.843,+00.1020,-00.0957,+00.2271,-00.634,+00.228,-08.736,-00.024845,+00.113113,+00.021674*60
"
1678037834.7152262,7723,1678037834,705862998,imu1_frame,0,0,0,,-0.22172220821168306,0.07580076164410934,0.8535798047471921,0.4652902576324304,"(0.0, 0.0, 0.0, 0.0, 0.0, 0.0, 0.0, 0.0, 0.0)",-0.011333,0.096369,-0.082362,"(0.0, 0.0, 0.0, 0.0, 0.0, 0.0, 0.0, 0.0, 0.0)",-0.52,0.501,-8.902,"(0.0, 0.0, 0.0, 0.0, 0.0, 0.0, 0.0, 0.0, 0.0)",0,0,0,,0.1005,-0.0971,0.2255,"(0.0, 0.0, 0.0, 0.0, 0.0, 0.0, 0.0, 0.0, 0.0)","$VNYMR,+121.638,+026.683,-004.939,+00.1005,-00.0971,+00.2255,-00.520,+00.501,-08.902,-00.011333,+00.096369,-00.082362*69
"
1678037834.7590845,7724,1678037834,730804204,imu1_frame,0,0,0,,-0.2222975401237311,0.07657357200971104,0.8528946963044677,0.4661447508449726,"(0.0, 0.0, 0.0, 0.0, 0.0, 0.0, 0.0, 0.0, 0.0)",0.067385,0.040568,-0.038206,"(0.0, 0.0, 0.0, 0.0, 0.0, 0.0, 0.0, 0.0, 0.0)",-0.419,1.104,-8.652,"(0.0, 0.0, 0.0, 0.0, 0.0, 0.0, 0.0, 0.0, 0.0)",0,0,0,,0.1012,-0.0956,0.2271,"(0.0, 0.0, 0.0, 0.0, 0.0, 0.0, 0.0, 0.0, 0.0)","$VNYMR,+121.510,+026.781,-004.924,+00.1012,-00.0956,+00.2271,-00.419,+01.104,-08.652,+00.067385,+00.040568,-00.038206*6F
"
1678037834.7591023,7725,1678037834,755713939,imu1_frame,0,0,0,,-0.22184769951938088,0.07701462746669349,0.8530348021299214,0.46603001161866253,"(0.0, 0.0, 0.0, 0.0, 0.0, 0.0, 0.0, 0.0, 0.0)",0.039049,-0.026827,0.046453,"(0.0, 0.0, 0.0, 0.0, 0.0, 0.0, 0.0, 0.0, 0.0)",-0.442,0.733,-9.328,"(0.0, 0.0, 0.0, 0.0, 0.0, 0.0, 0.0, 0.0, 0.0)",0,0,0,,0.1005,-0.0979,0.2271,"(0.0, 0.0, 0.0, 0.0, 0.0, 0.0, 0.0, 0.0, 0.0)","$VNYMR,+121.550,+026.761,-004.843,+00.1005,-00.0979,+00.2271,-00.442,+00.733,-09.328,+00.039049,-00.026827,+00.046453*6B
"
1678037834.8031414,7726,1678037834,780680418,imu1_frame,0,0,0,,-0.22142229698516444,0.07822685678496909,0.8530409855336218,0.46601910076217357,"(0.0, 0.0, 0.0, 0.0, 0.0, 0.0, 0.0, 0.0, 0.0)",0.1639,0.06423,-0.010279,"(0.0, 0.0, 0.0, 0.0, 0.0, 0.0, 0.0, 0.0, 0.0)",-0.369,0.414,-9.747,"(0.0, 0.0, 0.0, 0.0, 0.0, 0.0, 0.0, 0.0, 0.0)",0,0,0,,0.102,-0.0927,0.2239,"(0.0, 0.0, 0.0, 0.0, 0.0, 0.0, 0.0, 0.0, 0.0)","$VNYMR,+121.588,+026.787,-004.685,+00.1020,-00.0927,+00.2239,-00.369,+00.414,-09.747,+00.163900,+00.064230,-00.010279*6A
"
1678037834.8083177,7727,1678037834,805599451,imu1_frame,0,0,0,,-0.22176804396610814,0.08042391516463923,0.8525352385734685,0.4664060414869389,"(0.0, 0.0, 0.0, 0.0, 0.0, 0.0, 0.0, 0.0, 0.0)",0.114482,0.111595,-0.001183,"(0.0, 0.0, 0.0, 0.0, 0.0, 0.0, 0.0, 0.0, 0.0)",-0.277,0.342,-9.092,"(0.0, 0.0, 0.0, 0.0, 0.0, 0.0, 0.0, 0.0, 0.0)",0,0,0,,0.0991,-0.0993,0.2294,"(0.0, 0.0, 0.0, 0.0, 0.0, 0.0, 0.0, 0.0, 0.0)","$VNYMR,+121.560,+026.946,-004.487,+00.0991,-00.0993,+00.2294,-00.277,+00.342,-09.092,+00.114482,+00.111595,-00.001183*6A
"
1678037834.8511412,7728,1678037834,830578804,imu1_frame,0,0,0,,-0.22116173966821218,0.08239739268242963,0.8518446702250275,0.4676096795354877,"(0.0, 0.0, 0.0, 0.0, 0.0, 0.0, 0.0, 0.0, 0.0)",0.248276,-0.004443,-0.127617,"(0.0, 0.0, 0.0, 0.0, 0.0, 0.0, 0.0, 0.0, 0.0)",-0.37,0.45,-9.398,"(0.0, 0.0, 0.0, 0.0, 0.0, 0.0, 0.0, 0.0, 0.0)",0,0,0,,0.0998,-0.0956,0.2302,"(0.0, 0.0, 0.0, 0.0, 0.0, 0.0, 0.0, 0.0, 0.0)","$VNYMR,+121.445,+026.991,-004.277,+00.0998,-00.0956,+00.2302,-00.370,+00.450,-09.398,+00.248276,-00.004443,-00.127617*6B
"
1678037834.8956118,7729,1678037834,855510711,imu1_frame,0,0,0,,-0.22027402259318418,0.08437491895053284,0.8512173058513826,0.468816943211124,"(0.0, 0.0, 0.0, 0.0, 0.0, 0.0, 0.0, 0.0, 0.0)",0.103016,0.050686,0.010967,"(0.0, 0.0, 0.0, 0.0, 0.0, 0.0, 0.0, 0.0, 0.0)",-0.364,0.814,-10.118,"(0.0, 0.0, 0.0, 0.0, 0.0, 0.0, 0.0, 0.0, 0.0)",0,0,0,,0.0991,-0.0949,0.227,"(0.0, 0.0, 0.0, 0.0, 0.0, 0.0, 0.0, 0.0, 0.0)","$VNYMR,+121.339,+027.008,-004.048,+00.0991,-00.0949,+00.2270,-00.364,+00.814,-10.118,+00.103016,+00.050686,+00.010967*66
"
1678037834.895651,7730,1678037834,880387783,imu1_frame,0,0,0,,-0.22155451209518934,0.08483864513848828,0.8512444169482722,0.4680800626770214,"(0.0, 0.0, 0.0, 0.0, 0.0, 0.0, 0.0, 0.0, 0.0)",-0.093661,0.157096,0.021456,"(0.0, 0.0, 0.0, 0.0, 0.0, 0.0, 0.0, 0.0, 0.0)",-0.421,-0.168,-10.137,"(0.0, 0.0, 0.0, 0.0, 0.0, 0.0, 0.0, 0.0, 0.0)",0,0,0,,0.0991,-0.0971,0.2262,"(0.0, 0.0, 0.0, 0.0, 0.0, 0.0, 0.0, 0.0, 0.0)","$VNYMR,+121.408,+027.169,-004.059,+00.0991,-00.0971,+00.2262,-00.421,-00.168,-10.137,-00.093661,+00.157096,+00.021456*66
"
1678037834.939099,7731,1678037834,905447959,imu1_frame,0,0,0,,-0.22451644342913185,0.08515522690634034,0.8501111846775032,0.4686703827282828,"(0.0, 0.0, 0.0, 0.0, 0.0, 0.0, 0.0, 0.0, 0.0)",-0.019377,0.28921,-0.17073,"(0.0, 0.0, 0.0, 0.0, 0.0, 0.0, 0.0, 0.0, 0.0)",-0.327,-0.079,-9.752,"(0.0, 0.0, 0.0, 0.0, 0.0, 0.0, 0.0, 0.0, 0.0)",0,0,0,,0.097,-0.0904,0.226,"(0.0, 0.0, 0.0, 0.0, 0.0, 0.0, 0.0, 0.0, 0.0)","$VNYMR,+121.225,+027.487,-004.245,+00.0970,-00.0904,+00.2260,-00.327,-00.079,-09.752,-00.019377,+00.289210,-00.170730*6B
"
1678037834.939118,7732,1678037834,931456327,imu1_frame,0,0,0,,-0.22777487043480613,0.0863670471794411,0.8478539289473234,0.4709597187960968,"(0.0, 0.0, 0.0, 0.0, 0.0, 0.0, 0.0, 0.0, 0.0)",0.053926,0.266383,-0.288528,"(0.0, 0.0, 0.0, 0.0, 0.0, 0.0, 0.0, 0.0, 0.0)",-0.3,0.595,-8.841,"(0.0, 0.0, 0.0, 0.0, 0.0, 0.0, 0.0, 0.0, 0.0)",0,0,0,,0.0963,-0.0926,0.226,"(0.0, 0.0, 0.0, 0.0, 0.0, 0.0, 0.0, 0.0, 0.0)","$VNYMR,+120.801,+027.878,-004.418,+00.0963,-00.0926,+00.2260,-00.300,+00.595,-08.841,+00.053926,+00.266383,-00.288528*6D
"
1678037834.983036,7733,1678037834,956281423,imu1_frame,0,0,0,,-0.2299962017989137,0.08748815906390049,0.8458055099643912,0.47335040772725556,"(0.0, 0.0, 0.0, 0.0, 0.0, 0.0, 0.0, 0.0, 0.0)",0.029841,0.170103,-0.161828,"(0.0, 0.0, 0.0, 0.0, 0.0, 0.0, 0.0, 0.0, 0.0)",-0.182,1.388,-8.46,"(0.0, 0.0, 0.0, 0.0, 0.0, 0.0, 0.0, 0.0, 0.0)",0,0,0,,0.0941,-0.0962,0.2315,"(0.0, 0.0, 0.0, 0.0, 0.0, 0.0, 0.0, 0.0, 0.0)","$VNYMR,+120.395,+028.157,-004.537,+00.0941,-00.0962,+00.2315,-00.182,+01.388,-08.460,+00.029841,+00.170103,-00.161828*69
"
1678037834.984183,7734,1678037834,981210470,imu1_frame,0,0,0,,-0.23030541774609406,0.08762336748868194,0.8454594446815067,0.4737930850335186,"(0.0, 0.0, 0.0, 0.0, 0.0, 0.0, 0.0, 0.0, 0.0)",-0.006935,-0.085174,-0.007929,"(0.0, 0.0, 0.0, 0.0, 0.0, 0.0, 0.0, 0.0, 0.0)",-0.551,0.714,-8.422,"(0.0, 0.0, 0.0, 0.0, 0.0, 0.0, 0.0, 0.0, 0.0)",0,0,0,,0.0955,-0.0963,0.2276,"(0.0, 0.0, 0.0, 0.0, 0.0, 0.0, 0.0, 0.0, 0.0)","$VNYMR,+120.322,+028.194,-004.560,+00.0955,-00.0963,+00.2276,-00.551,+00.714,-08.422,-00.006935,-00.085174,-00.007929*61
"
1678037835.0282595,7735,1678037835,6178617,imu1_frame,0,0,0,,-0.2277270850530991,0.08688079339239405,0.8459997689059859,0.4742114438557392,"(0.0, 0.0, 0.0, 0.0, 0.0, 0.0, 0.0, 0.0, 0.0)",0.032389,-0.246931,0.017372,"(0.0, 0.0, 0.0, 0.0, 0.0, 0.0, 0.0, 0.0, 0.0)",-0.814,0.328,-9.824,"(0.0, 0.0, 0.0, 0.0, 0.0, 0.0, 0.0, 0.0, 0.0)",0,0,0,,0.0956,-0.0896,0.2275,"(0.0, 0.0, 0.0, 0.0, 0.0, 0.0, 0.0, 0.0, 0.0)","$VNYMR,+120.344,+027.886,-004.476,+00.0956,-00.0896,+00.2275,-00.814,+00.328,-09.824,+00.032389,-00.246931,+00.017372*6E
"
1678037835.071082,7736,1678037835,31051874,imu1_frame,0,0,0,,-0.22525057459622505,0.08575583789490729,0.8467363965661703,0.474284292003383,"(0.0, 0.0, 0.0, 0.0, 0.0, 0.0, 0.0, 0.0, 0.0)",-0.009005,-0.198767,-0.006558,"(0.0, 0.0, 0.0, 0.0, 0.0, 0.0, 0.0, 0.0, 0.0)",-1.077,-0.521,-10.436,"(0.0, 0.0, 0.0, 0.0, 0.0, 0.0, 0.0, 0.0, 0.0)",0,0,0,,0.0977,-0.0896,0.2261,"(0.0, 0.0, 0.0, 0.0, 0.0, 0.0, 0.0, 0.0, 0.0)","$VNYMR,+120.404,+027.568,-004.428,+00.0977,-00.0896,+00.2261,-01.077,-00.521,-10.436,-00.009005,-00.198767,-00.006558*63
"
1678037835.0710924,7737,1678037835,56224107,imu1_frame,0,0,0,,-0.22396119891128502,0.08438609471600517,0.8464802713934099,0.4755959614447332,"(0.0, 0.0, 0.0, 0.0, 0.0, 0.0, 0.0, 0.0, 0.0)",-0.028185,-0.066936,-0.188341,"(0.0, 0.0, 0.0, 0.0, 0.0, 0.0, 0.0, 0.0, 0.0)",-1.059,-0.608,-10.812,"(0.0, 0.0, 0.0, 0.0, 0.0, 0.0, 0.0, 0.0, 0.0)",0,0,0,,0.0977,-0.0911,0.2237,"(0.0, 0.0, 0.0, 0.0, 0.0, 0.0, 0.0, 0.0, 0.0)","$VNYMR,+120.238,+027.350,-004.531,+00.0977,-00.0911,+00.2237,-01.059,-00.608,-10.812,-00.028185,-00.066936,-00.188341*64
"
1678037835.115707,7738,1678037835,81048011,imu1_frame,0,0,0,,-0.22570779349558398,0.08378568470047795,0.8449491281535428,0.47759493488435867,"(0.0, 0.0, 0.0, 0.0, 0.0, 0.0, 0.0, 0.0, 0.0)",-0.063714,0.214461,-0.217814,"(0.0, 0.0, 0.0, 0.0, 0.0, 0.0, 0.0, 0.0, 0.0)",-0.892,-0.074,-9.814,"(0.0, 0.0, 0.0, 0.0, 0.0, 0.0, 0.0, 0.0, 0.0)",0,0,0,,0.0956,-0.0881,0.222,"(0.0, 0.0, 0.0, 0.0, 0.0, 0.0, 0.0, 0.0, 0.0)","$VNYMR,+119.876,+027.481,-004.785,+00.0956,-00.0881,+00.2220,-00.892,-00.074,-09.814,-00.063714,+00.214461,-00.217814*69
"
1678037835.1157405,7739,1678037835,106011152,imu1_frame,0,0,0,,-0.2285462794767163,0.08342004563444493,0.8433594770102999,0.4791163602514648,"(0.0, 0.0, 0.0, 0.0, 0.0, 0.0, 0.0, 0.0, 0.0)",-0.080662,0.13008,-0.204693,"(0.0, 0.0, 0.0, 0.0, 0.0, 0.0, 0.0, 0.0, 0.0)",-0.818,-0.31,-8.151,"(0.0, 0.0, 0.0, 0.0, 0.0, 0.0, 0.0, 0.0, 0.0)",0,0,0,,0.0942,-0.094,0.2275,"(0.0, 0.0, 0.0, 0.0, 0.0, 0.0, 0.0, 0.0, 0.0)","$VNYMR,+119.544,+027.738,-005.075,+00.0942,-00.0940,+00.2275,-00.818,-00.310,-08.151,-00.080662,+00.130080,-00.204693*6E
"
1678037835.1590917,7740,1678037835,131004333,imu1_frame,0,0,0,,-0.22825252250806524,0.08270588229779421,0.8420151782235045,0.48173744160412574,"(0.0, 0.0, 0.0, 0.0, 0.0, 0.0, 0.0, 0.0, 0.0)",0.074151,-0.147429,-0.261526,"(0.0, 0.0, 0.0, 0.0, 0.0, 0.0, 0.0, 0.0, 0.0)",-0.886,-0.196,-8.322,"(0.0, 0.0, 0.0, 0.0, 0.0, 0.0, 0.0, 0.0, 0.0)",0,0,0,,0.0977,-0.0919,0.2261,"(0.0, 0.0, 0.0, 0.0, 0.0, 0.0, 0.0, 0.0, 0.0)","$VNYMR,+119.164,+027.650,-005.223,+00.0977,-00.0919,+00.2261,-00.886,-00.196,-08.322,+00.074151,-00.147429,-00.261526*61
"
1678037835.159121,7741,1678037835,156012535,imu1_frame,0,0,0,,-0.22570441740705122,0.08137620294684936,0.8410833909405471,0.48478258945722014,"(0.0, 0.0, 0.0, 0.0, 0.0, 0.0, 0.0, 0.0, 0.0)",0.065839,-0.232251,-0.239274,"(0.0, 0.0, 0.0, 0.0, 0.0, 0.0, 0.0, 0.0, 0.0)",-1.029,-0.145,-9.889,"(0.0, 0.0, 0.0, 0.0, 0.0, 0.0, 0.0, 0.0, 0.0)",0,0,0,,0.0963,-0.0881,0.2236,"(0.0, 0.0, 0.0, 0.0, 0.0, 0.0, 0.0, 0.0, 0.0)","$VNYMR,+118.798,+027.295,-005.291,+00.0963,-00.0881,+00.2236,-01.029,-00.145,-09.889,+00.065839,-00.232251,-00.239274*6D
"
1678037835.2030427,7742,1678037835,180877685,imu1_frame,0,0,0,,-0.22469682780349637,0.08031804824181937,0.8401450074458424,0.4870489843593721,"(0.0, 0.0, 0.0, 0.0, 0.0, 0.0, 0.0, 0.0, 0.0)",-0.036975,-0.008544,-0.186535,"(0.0, 0.0, 0.0, 0.0, 0.0, 0.0, 0.0, 0.0, 0.0)",-0.964,-0.535,-10.191,"(0.0, 0.0, 0.0, 0.0, 0.0, 0.0, 0.0, 0.0, 0.0)",0,0,0,,0.0978,-0.0866,0.226,"(0.0, 0.0, 0.0, 0.0, 0.0, 0.0, 0.0, 0.0, 0.0)","$VNYMR,+118.491,+027.116,-005.410,+00.0978,-00.0866,+00.2260,-00.964,-00.535,-10.191,-00.036975,-00.008544,-00.186535*6E
"
1678037835.208541,7743,1678037835,205861330,imu1_frame,0,0,0,,-0.2260789585139055,0.07911350148514563,0.8386369433955468,0.4892008131352625,"(0.0, 0.0, 0.0, 0.0, 0.0, 0.0, 0.0, 0.0, 0.0)",-0.118711,0.083266,-0.281236,"(0.0, 0.0, 0.0, 0.0, 0.0, 0.0, 0.0, 0.0, 0.0)",-0.835,-1.002,-9.2,"(0.0, 0.0, 0.0, 0.0, 0.0, 0.0, 0.0, 0.0, 0.0)",0,0,0,,0.0992,-0.0882,0.2245,"(0.0, 0.0, 0.0, 0.0, 0.0, 0.0, 0.0, 0.0, 0.0)","$VNYMR,+118.107,+027.168,-005.709,+00.0992,-00.0882,+00.2245,-00.835,-01.002,-09.200,-00.118711,+00.083266,-00.281236*6A
"
1678037835.251106,7744,1678037835,230753183,imu1_frame,0,0,0,,-0.22754512322914958,0.0771531253767629,0.8364337131190203,0.49259441297801687,"(0.0, 0.0, 0.0, 0.0, 0.0, 0.0, 0.0, 0.0, 0.0)",-0.097961,-0.005917,-0.419248,"(0.0, 0.0, 0.0, 0.0, 0.0, 0.0, 0.0, 0.0, 0.0)",-0.737,-0.76,-8.486,"(0.0, 0.0, 0.0, 0.0, 0.0, 0.0, 0.0, 0.0, 0.0)",0,0,0,,0.0992,-0.086,0.2197,"(0.0, 0.0, 0.0, 0.0, 0.0, 0.0, 0.0, 0.0, 0.0)","$VNYMR,+117.526,+027.172,-006.137,+00.0992,-00.0860,+00.2197,-00.737,-00.760,-08.486,-00.097961,-00.005917,-00.419248*63
"
1678037835.299099,7745,1678037835,255733013,imu1_frame,0,0,0,,-0.22696557160310382,0.07544118667277178,0.8339207126246573,0.497364556151586,"(0.0, 0.0, 0.0, 0.0, 0.0, 0.0, 0.0, 0.0, 0.0)",0.055565,-0.13566,-0.418789,"(0.0, 0.0, 0.0, 0.0, 0.0, 0.0, 0.0, 0.0, 0.0)",-0.628,0.475,-8.718,"(0.0, 0.0, 0.0, 0.0, 0.0, 0.0, 0.0, 0.0, 0.0)",0,0,0,,0.1013,-0.089,0.2246,"(0.0, 0.0, 0.0, 0.0, 0.0, 0.0, 0.0, 0.0, 0.0)","$VNYMR,+116.829,+026.974,-006.439,+00.1013,-00.0890,+00.2246,-00.628,+00.475,-08.718,+00.055565,-00.135660,-00.418789*6B
"
1678037835.299112,7746,1678037835,280693054,imu1_frame,0,0,0,,-0.22524849588282495,0.07349666420606768,0.8329289810228309,0.5000906598061738,"(0.0, 0.0, 0.0, 0.0, 0.0, 0.0, 0.0, 0.0, 0.0)",-0.046138,-0.218692,-0.165471,"(0.0, 0.0, 0.0, 0.0, 0.0, 0.0, 0.0, 0.0, 0.0)",-0.741,0.22,-9.15,"(0.0, 0.0, 0.0, 0.0, 0.0, 0.0, 0.0, 0.0, 0.0)",0,0,0,,0.1014,-0.0823,0.2245,"(0.0, 0.0, 0.0, 0.0, 0.0, 0.0, 0.0, 0.0, 0.0)","$VNYMR,+116.471,+026.663,-006.609,+00.1014,-00.0823,+00.2245,-00.741,+00.220,-09.150,-00.046138,-00.218692,-00.165471*6F
"
1678037835.3431149,7747,1678037835,305673837,imu1_frame,0,0,0,,-0.22285034804549808,0.07116956312518849,0.8327667271766693,0.5017690641799561,"(0.0, 0.0, 0.0, 0.0, 0.0, 0.0, 0.0, 0.0, 0.0)",0.016805,-0.293445,-0.1714,"(0.0, 0.0, 0.0, 0.0, 0.0, 0.0, 0.0, 0.0, 0.0)",-1.01,-0.411,-9.724,"(0.0, 0.0, 0.0, 0.0, 0.0, 0.0, 0.0, 0.0, 0.0)",0,0,0,,0.1042,-0.0838,0.2207,"(0.0, 0.0, 0.0, 0.0, 0.0, 0.0, 0.0, 0.0, 0.0)","$VNYMR,+116.287,+026.269,-006.731,+00.1042,-00.0838,+00.2207,-01.010,-00.411,-09.724,+00.016805,-00.293445,-00.171400*62
"
1678037835.3431265,7748,1678037835,330661296,imu1_frame,0,0,0,,-0.21946371536626208,0.06934464335129259,0.83224543140874,0.5043753958862374,"(0.0, 0.0, 0.0, 0.0, 0.0, 0.0, 0.0, 0.0, 0.0)",0.049054,-0.275756,-0.206608,"(0.0, 0.0, 0.0, 0.0, 0.0, 0.0, 0.0, 0.0, 0.0)",-1.251,-0.102,-10.882,"(0.0, 0.0, 0.0, 0.0, 0.0, 0.0, 0.0, 0.0, 0.0)",0,0,0,,0.1049,-0.0869,0.2169,"(0.0, 0.0, 0.0, 0.0, 0.0, 0.0, 0.0, 0.0, 0.0)","$VNYMR,+116.015,+025.801,-006.759,+00.1049,-00.0869,+00.2169,-01.251,-00.102,-10.882,+00.049054,-00.275756,-00.206608*6B
"
1678037835.3911939,7749,1678037835,355613231,imu1_frame,0,0,0,,-0.21807834021556982,0.06804538899946685,0.8316680902490128,0.5061026083970455,"(0.0, 0.0, 0.0, 0.0, 0.0, 0.0, 0.0, 0.0, 0.0)",-0.025912,-0.020422,-0.107707,"(0.0, 0.0, 0.0, 0.0, 0.0, 0.0, 0.0, 0.0, 0.0)",-1.082,-0.005,-11.085,"(0.0, 0.0, 0.0, 0.0, 0.0, 0.0, 0.0, 0.0, 0.0)",0,0,0,,0.1055,-0.0891,0.2161,"(0.0, 0.0, 0.0, 0.0, 0.0, 0.0, 0.0, 0.0, 0.0)","$VNYMR,+115.800,+025.570,-006.848,+00.1055,-00.0891,+00.2161,-01.082,-00.005,-11.085,-00.025912,-00.020422,-00.107707*6F
"
1678037835.3912358,7750,1678037835,380457162,imu1_frame,0,0,0,,-0.21937602703774567,0.06832714545321447,0.8307798751439899,0.5069618910836255,"(0.0, 0.0, 0.0, 0.0, 0.0, 0.0, 0.0, 0.0, 0.0)",-0.000291,0.147037,-0.124082,"(0.0, 0.0, 0.0, 0.0, 0.0, 0.0, 0.0, 0.0, 0.0)",-0.895,-0.391,-9.601,"(0.0, 0.0, 0.0, 0.0, 0.0, 0.0, 0.0, 0.0, 0.0)",0,0,0,,0.1049,-0.0854,0.2145,"(0.0, 0.0, 0.0, 0.0, 0.0, 0.0, 0.0, 0.0, 0.0)","$VNYMR,+115.629,+025.708,-006.942,+00.1049,-00.0854,+00.2145,-00.895,-00.391,-09.601,-00.000291,+00.147037,-00.124082*66
"
1678037835.435096,7751,1678037835,405439853,imu1_frame,0,0,0,,-0.2207956391204632,0.06856544660176198,0.8295643960662071,0.5083020539570898,"(0.0, 0.0, 0.0, 0.0, 0.0, 0.0, 0.0, 0.0, 0.0)",-0.033426,0.090345,-0.150269,"(0.0, 0.0, 0.0, 0.0, 0.0, 0.0, 0.0, 0.0, 0.0)",-0.666,-0.03,-8.943,"(0.0, 0.0, 0.0, 0.0, 0.0, 0.0, 0.0, 0.0, 0.0)",0,0,0,,0.1063,-0.0861,0.2201,"(0.0, 0.0, 0.0, 0.0, 0.0, 0.0, 0.0, 0.0, 0.0)","$VNYMR,+115.382,+025.851,-007.066,+00.1063,-00.0861,+00.2201,-00.666,-00.030,-08.943,-00.033426,+00.090345,-00.150269*63
"
1678037835.4351096,7752,1678037835,431350708,imu1_frame,0,0,0,,-0.22224140097227585,0.06811978026501053,0.8287889095628718,0.508996462282512,"(0.0, 0.0, 0.0, 0.0, 0.0, 0.0, 0.0, 0.0, 0.0)",-0.115615,0.107462,-0.047328,"(0.0, 0.0, 0.0, 0.0, 0.0, 0.0, 0.0, 0.0, 0.0)",-0.475,0.129,-8.921,"(0.0, 0.0, 0.0, 0.0, 0.0, 0.0, 0.0, 0.0, 0.0)",0,0,0,,0.1049,-0.0832,0.2176,"(0.0, 0.0, 0.0, 0.0, 0.0, 0.0, 0.0, 0.0, 0.0)","$VNYMR,+115.217,+025.959,-007.241,+00.1049,-00.0832,+00.2176,-00.475,+00.129,-08.921,-00.115615,+00.107462,-00.047328*6F
"
1678037835.4830875,7753,1678037835,456258296,imu1_frame,0,0,0,,-0.22387800878939806,0.0677639503424967,0.8284373244135724,0.5088990899313487,"(0.0, 0.0, 0.0, 0.0, 0.0, 0.0, 0.0, 0.0, 0.0)",-0.043394,0.078187,-0.053731,"(0.0, 0.0, 0.0, 0.0, 0.0, 0.0, 0.0, 0.0, 0.0)",-0.473,-0.6,-8.388,"(0.0, 0.0, 0.0, 0.0, 0.0, 0.0, 0.0, 0.0, 0.0)",0,0,0,,0.1035,-0.0824,0.2152,"(0.0, 0.0, 0.0, 0.0, 0.0, 0.0, 0.0, 0.0, 0.0)","$VNYMR,+115.160,+026.098,-007.395,+00.1035,-00.0824,+00.2152,-00.473,-00.600,-08.388,-00.043394,+00.078187,-00.053731*6C
"
1678037835.4839225,7754,1678037835,481214046,imu1_frame,0,0,0,,-0.2237328934666151,0.06700567510241792,0.8276290790288366,0.5103762724020438,"(0.0, 0.0, 0.0, 0.0, 0.0, 0.0, 0.0, 0.0, 0.0)",-0.031304,-0.096297,-0.192297,"(0.0, 0.0, 0.0, 0.0, 0.0, 0.0, 0.0, 0.0, 0.0)",-0.531,-0.304,-8.619,"(0.0, 0.0, 0.0, 0.0, 0.0, 0.0, 0.0, 0.0, 0.0)",0,0,0,,0.1042,-0.0846,0.2192,"(0.0, 0.0, 0.0, 0.0, 0.0, 0.0, 0.0, 0.0, 0.0)","$VNYMR,+114.940,+026.023,-007.511,+00.1042,-00.0846,+00.2192,-00.531,-00.304,-08.619,-00.031304,-00.096297,-00.192297*63
"
1678037835.527066,7755,1678037835,506147384,imu1_frame,0,0,0,,-0.223500788017023,0.06488954443579126,0.8269670821126363,0.5118224202599937,"(0.0, 0.0, 0.0, 0.0, 0.0, 0.0, 0.0, 0.0, 0.0)",-0.136625,-0.074409,-0.129139,"(0.0, 0.0, 0.0, 0.0, 0.0, 0.0, 0.0, 0.0, 0.0)",-0.682,-0.045,-9.55,"(0.0, 0.0, 0.0, 0.0, 0.0, 0.0, 0.0, 0.0, 0.0)",0,0,0,,0.1056,-0.0854,0.2145,"(0.0, 0.0, 0.0, 0.0, 0.0, 0.0, 0.0, 0.0, 0.0)","$VNYMR,+114.709,+025.854,-007.757,+00.1056,-00.0854,+00.2145,-00.682,-00.045,-09.550,-00.136625,-00.074409,-00.129139*6F
"
1678037835.5750387,7756,1678037835,531086444,imu1_frame,0,0,0,,-0.2237221539509211,0.06382711674272032,0.8259672239517823,0.5134711695482598,"(0.0, 0.0, 0.0, 0.0, 0.0, 0.0, 0.0, 0.0, 0.0)",0.059019,0.007884,-0.23784,"(0.0, 0.0, 0.0, 0.0, 0.0, 0.0, 0.0, 0.0, 0.0)",-0.809,-0.047,-9.687,"(0.0, 0.0, 0.0, 0.0, 0.0, 0.0, 0.0, 0.0, 0.0)",0,0,0,,0.1049,-0.0839,0.2176,"(0.0, 0.0, 0.0, 0.0, 0.0, 0.0, 0.0, 0.0, 0.0)","$VNYMR,+114.445,+025.793,-007.936,+00.1049,-00.0839,+00.2176,-00.809,-00.047,-09.687,+00.059019,+00.007884,-00.237840*6D
"
1678037835.575055,7757,1678037835,556018352,imu1_frame,0,0,0,,-0.22396072386908086,0.06431909944860403,0.8244789615052891,0.5156928248922201,"(0.0, 0.0, 0.0, 0.0, 0.0, 0.0, 0.0, 0.0, 0.0)",0.00596,0.080981,-0.114012,"(0.0, 0.0, 0.0, 0.0, 0.0, 0.0, 0.0, 0.0, 0.0)",-0.715,0.881,-9.607,"(0.0, 0.0, 0.0, 0.0, 0.0, 0.0, 0.0, 0.0, 0.0)",0,0,0,,0.1056,-0.084,0.2121,"(0.0, 0.0, 0.0, 0.0, 0.0, 0.0, 0.0, 0.0, 0.0)","$VNYMR,+114.118,+025.826,-007.978,+00.1056,-00.0840,+00.2121,-00.715,+00.881,-09.607,+00.005960,+00.080981,-00.114012*6F
"
1678037835.62113,7758,1678037835,580999135,imu1_frame,0,0,0,,-0.2249755482785728,0.06436830746513236,0.8241494492637387,0.5157716635771162,"(0.0, 0.0, 0.0, 0.0, 0.0, 0.0, 0.0, 0.0, 0.0)",-0.00756,0.056426,-0.022545,"(0.0, 0.0, 0.0, 0.0, 0.0, 0.0, 0.0, 0.0, 0.0)",-0.686,0.089,-9.162,"(0.0, 0.0, 0.0, 0.0, 0.0, 0.0, 0.0, 0.0, 0.0)",0,0,0,,0.1049,-0.0869,0.2153,"(0.0, 0.0, 0.0, 0.0, 0.0, 0.0, 0.0, 0.0, 0.0)","$VNYMR,+114.065,+025.927,-008.052,+00.1049,-00.0869,+00.2153,-00.686,+00.089,-09.162,-00.007560,+00.056426,-00.022545*65
"
1678037835.6211405,7759,1678037835,605954408,imu1_frame,0,0,0,,-0.2244553244408607,0.06489670541157055,0.8236025197281429,0.516804715975315,"(0.0, 0.0, 0.0, 0.0, 0.0, 0.0, 0.0, 0.0, 0.0)",0.116607,-0.052285,-0.100509,"(0.0, 0.0, 0.0, 0.0, 0.0, 0.0, 0.0, 0.0, 0.0)",-0.632,0.255,-9.126,"(0.0, 0.0, 0.0, 0.0, 0.0, 0.0, 0.0, 0.0, 0.0)",0,0,0,,0.1042,-0.0824,0.2144,"(0.0, 0.0, 0.0, 0.0, 0.0, 0.0, 0.0, 0.0, 0.0)","$VNYMR,+113.943,+025.900,-007.994,+00.1042,-00.0824,+00.2144,-00.632,+00.255,-09.126,+00.116607,-00.052285,-00.100509*6F
"
1678037835.6630871,7760,1678037835,630940675,imu1_frame,0,0,0,,-0.22277331970379483,0.06578821913776041,0.8233744527526672,0.5177822600331907,"(0.0, 0.0, 0.0, 0.0, 0.0, 0.0, 0.0, 0.0, 0.0)",0.122416,-0.064961,0.017578,"(0.0, 0.0, 0.0, 0.0, 0.0, 0.0, 0.0, 0.0, 0.0)",-0.576,0.489,-9.461,"(0.0, 0.0, 0.0, 0.0, 0.0, 0.0, 0.0, 0.0, 0.0)",0,0,0,,0.1056,-0.0862,0.2161,"(0.0, 0.0, 0.0, 0.0, 0.0, 0.0, 0.0, 0.0, 0.0)","$VNYMR,+113.882,+025.784,-007.810,+00.1056,-00.0862,+00.2161,-00.576,+00.489,-09.461,+00.122416,-00.064961,+00.017578*68
"
1678037835.6631165,7761,1678037835,656126260,imu1_frame,0,0,0,,-0.22131315020450007,0.06611145869825341,0.8239646396147471,0.5174282918819663,"(0.0, 0.0, 0.0, 0.0, 0.0, 0.0, 0.0, 0.0, 0.0)",0.028938,-0.114691,0.049013,"(0.0, 0.0, 0.0, 0.0, 0.0, 0.0, 0.0, 0.0, 0.0)",-0.574,-0.379,-9.342,"(0.0, 0.0, 0.0, 0.0, 0.0, 0.0, 0.0, 0.0, 0.0)",0,0,0,,0.1056,-0.0847,0.2113,"(0.0, 0.0, 0.0, 0.0, 0.0, 0.0, 0.0, 0.0, 0.0)","$VNYMR,+113.998,+025.666,-007.656,+00.1056,-00.0847,+00.2113,-00.574,-00.379,-09.342,+00.028938,-00.114691,+00.049013*64
"
1678037835.707093,7762,1678037835,680913686,imu1_frame,0,0,0,,-0.2199775316685122,0.06548207495039582,0.8241539140142117,0.5177763121621871,"(0.0, 0.0, 0.0, 0.0, 0.0, 0.0, 0.0, 0.0, 0.0)",0.013247,-0.113553,-0.062101,"(0.0, 0.0, 0.0, 0.0, 0.0, 0.0, 0.0, 0.0, 0.0)",-0.605,-0.317,-9.614,"(0.0, 0.0, 0.0, 0.0, 0.0, 0.0, 0.0, 0.0, 0.0)",0,0,0,,0.1063,-0.0884,0.2122,"(0.0, 0.0, 0.0, 0.0, 0.0, 0.0, 0.0, 0.0, 0.0)","$VNYMR,+113.993,+025.493,-007.631,+00.1063,-00.0884,+00.2122,-00.605,-00.317,-09.614,+00.013247,-00.113553,-00.062101*6A
"
1678037835.709017,7763,1678037835,705856561,imu1_frame,0,0,0,,-0.21912792383189422,0.06470180705547172,0.8240414003978775,0.5184133481992772,"(0.0, 0.0, 0.0, 0.0, 0.0, 0.0, 0.0, 0.0, 0.0)",-0.02467,-0.07177,-0.035388,"(0.0, 0.0, 0.0, 0.0, 0.0, 0.0, 0.0, 0.0, 0.0)",-0.606,0.211,-9.762,"(0.0, 0.0, 0.0, 0.0, 0.0, 0.0, 0.0, 0.0, 0.0)",0,0,0,,0.1056,-0.0832,0.2121,"(0.0, 0.0, 0.0, 0.0, 0.0, 0.0, 0.0, 0.0, 0.0)","$VNYMR,+113.924,+025.355,-007.667,+00.1056,-00.0832,+00.2121,-00.606,+00.211,-09.762,-00.024670,-00.071770,-00.035388*67
"
1678037835.7510567,7764,1678037835,730808258,imu1_frame,0,0,0,,-0.2190415521938532,0.06387819568708566,0.8243120250536705,0.5181216651329946,"(0.0, 0.0, 0.0, 0.0, 0.0, 0.0, 0.0, 0.0, 0.0)",-0.074834,-0.035636,0.041804,"(0.0, 0.0, 0.0, 0.0, 0.0, 0.0, 0.0, 0.0, 0.0)",-0.64,0.257,-9.558,"(0.0, 0.0, 0.0, 0.0, 0.0, 0.0, 0.0, 0.0, 0.0)",0,0,0,,0.1056,-0.0855,0.2106,"(0.0, 0.0, 0.0, 0.0, 0.0, 0.0, 0.0, 0.0, 0.0)","$VNYMR,+113.959,+025.297,-007.734,+00.1056,-00.0855,+00.2106,-00.640,+00.257,-09.558,-00.074834,-00.035636,+00.041804*68
"
1678037835.7990084,7765,1678037835,755732536,imu1_frame,0,0,0,,-0.21923882444000897,0.06247855460404483,0.8250765675504818,0.5169907404894867,"(0.0, 0.0, 0.0, 0.0, 0.0, 0.0, 0.0, 0.0, 0.0)",-0.161672,-0.05475,0.096414,"(0.0, 0.0, 0.0, 0.0, 0.0, 0.0, 0.0, 0.0, 0.0)",-0.644,-0.057,-9.534,"(0.0, 0.0, 0.0, 0.0, 0.0, 0.0, 0.0, 0.0, 0.0)",0,0,0,,0.1049,-0.0862,0.2113,"(0.0, 0.0, 0.0, 0.0, 0.0, 0.0, 0.0, 0.0, 0.0)","$VNYMR,+114.097,+025.238,-007.853,+00.1049,-00.0862,+00.2113,-00.644,-00.057,-09.534,-00.161672,-00.054750,+00.096414*63
"
1678037835.7990177,7766,1678037835,780621290,imu1_frame,0,0,0,,-0.21971839452128908,0.061077478931759084,0.8256526185804395,0.5160340319277315,"(0.0, 0.0, 0.0, 0.0, 0.0, 0.0, 0.0, 0.0, 0.0)",-0.10096,-0.010862,0.021265,"(0.0, 0.0, 0.0, 0.0, 0.0, 0.0, 0.0, 0.0, 0.0)",-0.638,-0.122,-9.541,"(0.0, 0.0, 0.0, 0.0, 0.0, 0.0, 0.0, 0.0, 0.0)",0,0,0,,0.1063,-0.087,0.2106,"(0.0, 0.0, 0.0, 0.0, 0.0, 0.0, 0.0, 0.0, 0.0)","$VNYMR,+114.198,+025.205,-007.999,+00.1063,-00.0870,+00.2106,-00.638,-00.122,-09.541,-00.100960,-00.010862,+00.021265*68
"
1678037835.8435717,7767,1678037835,805567502,imu1_frame,0,0,0,,-0.22001922535226281,0.060370393760197115,0.8258508661901997,0.5156717006444369,"(0.0, 0.0, 0.0, 0.0, 0.0, 0.0, 0.0, 0.0, 0.0)",-0.066241,-0.012739,0.058306,"(0.0, 0.0, 0.0, 0.0, 0.0, 0.0, 0.0, 0.0, 0.0)",-0.517,0.721,-9.342,"(0.0, 0.0, 0.0, 0.0, 0.0, 0.0, 0.0, 0.0, 0.0)",0,0,0,,0.1041,-0.0869,0.2105,"(0.0, 0.0, 0.0, 0.0, 0.0, 0.0, 0.0, 0.0, 0.0)","$VNYMR,+114.229,+025.193,-008.081,+00.1041,-00.0869,+00.2105,-00.517,+00.721,-09.342,-00.066241,-00.012739,+00.058306*61
"
1678037835.843605,7768,1678037835,830525875,imu1_frame,0,0,0,,-0.22044555488326675,0.059081215492946676,0.8273510359445966,0.5132284390303088,"(0.0, 0.0, 0.0, 0.0, 0.0, 0.0, 0.0, 0.0, 0.0)",-0.205323,-0.057195,0.280526,"(0.0, 0.0, 0.0, 0.0, 0.0, 0.0, 0.0, 0.0, 0.0)",-0.494,0.354,-9.23,"(0.0, 0.0, 0.0, 0.0, 0.0, 0.0, 0.0, 0.0, 0.0)",0,0,0,,0.1055,-0.09,0.2059,"(0.0, 0.0, 0.0, 0.0, 0.0, 0.0, 0.0, 0.0, 0.0)","$VNYMR,+114.549,+025.177,-008.164,+00.1055,-00.0900,+00.2059,-00.494,+00.354,-09.230,-00.205323,-00.057195,+00.280526*6B
"
1678037835.8870604,7769,1678037835,855495214,imu1_frame,0,0,0,,-0.22066317233367172,0.05694635526735018,0.8296167951718,0.5097066314717486,"(0.0, 0.0, 0.0, 0.0, 0.0, 0.0, 0.0, 0.0, 0.0)",-0.230236,-0.113664,0.238536,"(0.0, 0.0, 0.0, 0.0, 0.0, 0.0, 0.0, 0.0, 0.0)",-0.44,-0.932,-9.443,"(0.0, 0.0, 0.0, 0.0, 0.0, 0.0, 0.0, 0.0, 0.0)",0,0,0,,0.104,-0.0944,0.2075,"(0.0, 0.0, 0.0, 0.0, 0.0, 0.0, 0.0, 0.0, 0.0)","$VNYMR,+115.021,+025.099,-008.283,+00.1040,-00.0944,+00.2075,-00.440,-00.932,-09.443,-00.230236,-00.113664,+00.238536*6E
"
1678037835.8870738,7770,1678037835,880443096,imu1_frame,0,0,0,,-0.22097087112828145,0.055014839821468674,0.8304417248412058,0.5084405404322021,"(0.0, 0.0, 0.0, 0.0, 0.0, 0.0, 0.0, 0.0, 0.0)",-0.091992,-0.003222,-0.026145,"(0.0, 0.0, 0.0, 0.0, 0.0, 0.0, 0.0, 0.0, 0.0)",-0.571,-0.733,-9.889,"(0.0, 0.0, 0.0, 0.0, 0.0, 0.0, 0.0, 0.0, 0.0)",0,0,0,,0.1048,-0.09,0.2074,"(0.0, 0.0, 0.0, 0.0, 0.0, 0.0, 0.0, 0.0, 0.0)","$VNYMR,+115.165,+025.021,-008.461,+00.1048,-00.0900,+00.2074,-00.571,-00.733,-09.889,-00.091992,-00.003222,-00.026145*68
"
1678037835.935112,7771,1678037835,905521631,imu1_frame,0,0,0,,-0.2211431719098261,0.05465954426106846,0.8302020834095529,0.5087951772975752,"(0.0, 0.0, 0.0, 0.0, 0.0, 0.0, 0.0, 0.0, 0.0)",-0.046358,-0.057505,-0.013433,"(0.0, 0.0, 0.0, 0.0, 0.0, 0.0, 0.0, 0.0, 0.0)",-0.876,0.332,-8.993,"(0.0, 0.0, 0.0, 0.0, 0.0, 0.0, 0.0, 0.0, 0.0)",0,0,0,,0.1054,-0.096,0.2044,"(0.0, 0.0, 0.0, 0.0, 0.0, 0.0, 0.0, 0.0, 0.0)","$VNYMR,+115.102,+025.012,-008.521,+00.1054,-00.0960,+00.2044,-00.876,+00.332,-08.993,-00.046358,-00.057505,-00.013433*61
"
1678037835.9351304,7772,1678037835,931409597,imu1_frame,0,0,0,,-0.21946654358498546,0.05325886565710119,0.8310970014324779,0.5082083270527179,"(0.0, 0.0, 0.0, 0.0, 0.0, 0.0, 0.0, 0.0, 0.0)",-0.025504,-0.204323,0.119829,"(0.0, 0.0, 0.0, 0.0, 0.0, 0.0, 0.0, 0.0, 0.0)",-1.192,0.771,-10.131,"(0.0, 0.0, 0.0, 0.0, 0.0, 0.0, 0.0, 0.0, 0.0)",0,0,0,,0.1055,-0.0944,0.2068,"(0.0, 0.0, 0.0, 0.0, 0.0, 0.0, 0.0, 0.0, 0.0)","$VNYMR,+115.235,+024.767,-008.521,+00.1055,-00.0944,+00.2068,-01.192,+00.771,-10.131,-00.025504,-00.204323,+00.119829*65
"
1678037835.980463,7773,1678037835,956321001,imu1_frame,0,0,0,,-0.2177261060331567,0.052465810878784054,0.8331283981954506,0.505707181638498,"(0.0, 0.0, 0.0, 0.0, 0.0, 0.0, 0.0, 0.0, 0.0)",-0.063359,-0.172459,0.289759,"(0.0, 0.0, 0.0, 0.0, 0.0, 0.0, 0.0, 0.0, 0.0)",-1.316,-0.045,-10.128,"(0.0, 0.0, 0.0, 0.0, 0.0, 0.0, 0.0, 0.0, 0.0)",0,0,0,,0.104,-0.0952,0.202,"(0.0, 0.0, 0.0, 0.0, 0.0, 0.0, 0.0, 0.0, 0.0)","$VNYMR,+115.653,+024.573,-008.396,+00.1040,-00.0952,+00.2020,-01.316,-00.045,-10.128,-00.063359,-00.172459,+00.289759*65
"
1678037835.9837825,7774,1678037835,981200218,imu1_frame,0,0,0,,-0.21630285278563746,0.05080010463618651,0.8351290046864952,0.5031818466291199,"(0.0, 0.0, 0.0, 0.0, 0.0, 0.0, 0.0, 0.0, 0.0)",-0.142841,-0.171838,0.152043,"(0.0, 0.0, 0.0, 0.0, 0.0, 0.0, 0.0, 0.0, 0.0)",-1.282,-0.947,-10.42,"(0.0, 0.0, 0.0, 0.0, 0.0, 0.0, 0.0, 0.0, 0.0)",0,0,0,,0.1047,-0.0945,0.1988,"(0.0, 0.0, 0.0, 0.0, 0.0, 0.0, 0.0, 0.0, 0.0)","$VNYMR,+116.048,+024.356,-008.384,+00.1047,-00.0945,+00.1988,-01.282,-00.947,-10.420,-00.142841,-00.171838,+00.152043*6A
"
1678037836.027119,7775,1678037836,6164789,imu1_frame,0,0,0,,-0.21637100066262926,0.04858968081290822,0.8356289730075355,0.5025403988348838,"(0.0, 0.0, 0.0, 0.0, 0.0, 0.0, 0.0, 0.0, 0.0)",-0.16036,-0.033857,-0.068525,"(0.0, 0.0, 0.0, 0.0, 0.0, 0.0, 0.0, 0.0, 0.0)",-1.237,-0.825,-10.482,"(0.0, 0.0, 0.0, 0.0, 0.0, 0.0, 0.0, 0.0, 0.0)",0,0,0,,0.1062,-0.0901,0.2004,"(0.0, 0.0, 0.0, 0.0, 0.0, 0.0, 0.0, 0.0, 0.0)","$VNYMR,+116.107,+024.233,-008.594,+00.1062,-00.0901,+00.2004,-01.237,-00.825,-10.482,-00.160360,-00.033857,-00.068525*62
"
1678037836.0750372,7776,1678037836,31138658,imu1_frame,0,0,0,,-0.21806870992854904,0.04700192435947892,0.8346300521813269,0.503616454112055,"(0.0, 0.0, 0.0, 0.0, 0.0, 0.0, 0.0, 0.0, 0.0)",-0.201365,0.130384,-0.164324,"(0.0, 0.0, 0.0, 0.0, 0.0, 0.0, 0.0, 0.0, 0.0)",-1.146,0.164,-10.083,"(0.0, 0.0, 0.0, 0.0, 0.0, 0.0, 0.0, 0.0, 0.0)",0,0,0,,0.104,-0.0967,0.198,"(0.0, 0.0, 0.0, 0.0, 0.0, 0.0, 0.0, 0.0, 0.0)","$VNYMR,+115.865,+024.290,-008.911,+00.1040,-00.0967,+00.1980,-01.146,+00.164,-10.083,-00.201365,+00.130384,-00.164324*62
"
1678037836.0750475,7777,1678037836,56091308,imu1_frame,0,0,0,,-0.22144774731372013,0.044614229435766775,0.8335274166946328,0.5041849971586849,"(0.0, 0.0, 0.0, 0.0, 0.0, 0.0, 0.0, 0.0, 0.0)",-0.304803,0.135681,-0.152434,"(0.0, 0.0, 0.0, 0.0, 0.0, 0.0, 0.0, 0.0, 0.0)",-1.123,0.803,-9.655,"(0.0, 0.0, 0.0, 0.0, 0.0, 0.0, 0.0, 0.0, 0.0)",0,0,0,,0.104,-0.0967,0.1973,"(0.0, 0.0, 0.0, 0.0, 0.0, 0.0, 0.0, 0.0, 0.0)","$VNYMR,+115.616,+024.466,-009.417,+00.1040,-00.0967,+00.1973,-01.123,+00.803,-09.655,-00.304803,+00.135681,-00.152434*66
"
1678037836.1230664,7778,1678037836,81088542,imu1_frame,0,0,0,,-0.2255390768004559,0.04175898480683969,0.8326623651653253,0.5040453329425706,"(0.0, 0.0, 0.0, 0.0, 0.0, 0.0, 0.0, 0.0, 0.0)",-0.398285,0.223241,-0.040227,"(0.0, 0.0, 0.0, 0.0, 0.0, 0.0, 0.0, 0.0, 0.0)",-1.068,1.382,-9.869,"(0.0, 0.0, 0.0, 0.0, 0.0, 0.0, 0.0, 0.0, 0.0)",0,0,0,,0.1033,-0.0967,0.1972,"(0.0, 0.0, 0.0, 0.0, 0.0, 0.0, 0.0, 0.0, 0.0)","$VNYMR,+115.429,+024.689,-010.003,+00.1033,-00.0967,+00.1972,-01.068,+01.382,-09.869,-00.398285,+00.223241,-00.040227*60
"
1678037836.1231048,7779,1678037836,106043338,imu1_frame,0,0,0,,-0.23096436250105026,0.03989277798656035,0.8321705763756443,0.5025496605646315,"(0.0, 0.0, 0.0, 0.0, 0.0, 0.0, 0.0, 0.0, 0.0)",-0.325596,0.337068,0.050226,"(0.0, 0.0, 0.0, 0.0, 0.0, 0.0, 0.0, 0.0, 0.0)",-0.991,1.327,-8.985,"(0.0, 0.0, 0.0, 0.0, 0.0, 0.0, 0.0, 0.0, 0.0)",0,0,0,,0.1026,-0.0989,0.2004,"(0.0, 0.0, 0.0, 0.0, 0.0, 0.0, 0.0, 0.0, 0.0)","$VNYMR,+115.388,+025.119,-010.548,+00.1026,-00.0989,+00.2004,-00.991,+01.327,-08.985,-00.325596,+00.337068,+00.050226*6D
"
1678037836.171028,7780,1678037836,131010770,imu1_frame,0,0,0,,-0.23486151901778124,0.03938062456265755,0.8319093525466765,0.5012145872169775,"(0.0, 0.0, 0.0, 0.0, 0.0, 0.0, 0.0, 0.0, 0.0)",-0.12455,0.154423,0.039194,"(0.0, 0.0, 0.0, 0.0, 0.0, 0.0, 0.0, 0.0, 0.0)",-1.021,1.415,-7.964,"(0.0, 0.0, 0.0, 0.0, 0.0, 0.0, 0.0, 0.0, 0.0)",0,0,0,,0.0997,-0.1041,0.1972,"(0.0, 0.0, 0.0, 0.0, 0.0, 0.0, 0.0, 0.0, 0.0)","$VNYMR,+115.403,+025.483,-010.849,+00.0997,-00.1041,+00.1972,-01.021,+01.415,-07.964,-00.124550,+00.154423,+00.039194*63
"
1678037836.171049,7781,1678037836,155993461,imu1_frame,0,0,0,,-0.23481980651600115,0.03964525988417866,0.8325422519603709,0.5001612845245603,"(0.0, 0.0, 0.0, 0.0, 0.0, 0.0, 0.0, 0.0, 0.0)",0.021525,-0.095429,0.184939,"(0.0, 0.0, 0.0, 0.0, 0.0, 0.0, 0.0, 0.0, 0.0)",-1.046,2.044,-8.41,"(0.0, 0.0, 0.0, 0.0, 0.0, 0.0, 0.0, 0.0, 0.0)",0,0,0,,0.1011,-0.1034,0.1949,"(0.0, 0.0, 0.0, 0.0, 0.0, 0.0, 0.0, 0.0, 0.0)","$VNYMR,+115.560,+025.509,-010.785,+00.1011,-00.1034,+00.1949,-01.046,+02.044,-08.410,+00.021525,-00.095429,+00.184939*6C
"
1678037836.2156832,7782,1678037836,180910587,imu1_frame,0,0,0,,-0.23245126476771358,0.039344871148039376,0.8352176649442193,0.4968197286615742,"(0.0, 0.0, 0.0, 0.0, 0.0, 0.0, 0.0, 0.0, 0.0)",-0.010506,-0.227836,0.408923,"(0.0, 0.0, 0.0, 0.0, 0.0, 0.0, 0.0, 0.0, 0.0)",-1.103,1.261,-9.81,"(0.0, 0.0, 0.0, 0.0, 0.0, 0.0, 0.0, 0.0, 0.0)",0,0,0,,0.1025,-0.1012,0.1965,"(0.0, 0.0, 0.0, 0.0, 0.0, 0.0, 0.0, 0.0, 0.0)","$VNYMR,+116.138,+025.302,-010.532,+00.1025,-00.1012,+00.1965,-01.103,+01.261,-09.810,-00.010506,-00.227836,+00.408923*65
"
1678037836.2157035,7783,1678037836,205876827,imu1_frame,0,0,0,,-0.23045157983660663,0.03970192193179735,0.8381443736572122,0.4927776736546543,"(0.0, 0.0, 0.0, 0.0, 0.0, 0.0, 0.0, 0.0, 0.0)",0.062592,-0.120339,0.317784,"(0.0, 0.0, 0.0, 0.0, 0.0, 0.0, 0.0, 0.0, 0.0)",-1.01,-0.336,-10.033,"(0.0, 0.0, 0.0, 0.0, 0.0, 0.0, 0.0, 0.0, 0.0)",0,0,0,,0.1004,-0.1041,0.198,"(0.0, 0.0, 0.0, 0.0, 0.0, 0.0, 0.0, 0.0, 0.0)","$VNYMR,+116.806,+025.178,-010.220,+00.1004,-00.1041,+00.1980,-01.010,-00.336,-10.033,+00.062592,-00.120339,+00.317784*66
"
1678037836.259037,7784,1678037836,230870485,imu1_frame,0,0,0,,-0.22871479197297387,0.041301017909289056,0.8390908873458374,0.4918437278502098,"(0.0, 0.0, 0.0, 0.0, 0.0, 0.0, 0.0, 0.0, 0.0)",0.199135,-0.029432,0.03643,"(0.0, 0.0, 0.0, 0.0, 0.0, 0.0, 0.0, 0.0, 0.0)",-0.86,0.015,-9.833,"(0.0, 0.0, 0.0, 0.0, 0.0, 0.0, 0.0, 0.0, 0.0)",0,0,0,,0.1011,-0.1057,0.1941,"(0.0, 0.0, 0.0, 0.0, 0.0, 0.0, 0.0, 0.0, 0.0)","$VNYMR,+117.035,+025.116,-009.900,+00.1011,-00.1057,+00.1941,-00.860,+00.015,-09.833,+00.199135,-00.029432,+00.036430*66
"
1678037836.2590706,7785,1678037836,255783319,imu1_frame,0,0,0,,-0.22788720665775808,0.04310683397130352,0.8392559654182266,0.49179126305437254,"(0.0, 0.0, 0.0, 0.0, 0.0, 0.0, 0.0, 0.0, 0.0)",0.080063,0.037841,0.098046,"(0.0, 0.0, 0.0, 0.0, 0.0, 0.0, 0.0, 0.0, 0.0)",-0.652,0.87,-9.557,"(0.0, 0.0, 0.0, 0.0, 0.0, 0.0, 0.0, 0.0, 0.0)",0,0,0,,0.1004,-0.1042,0.1941,"(0.0, 0.0, 0.0, 0.0, 0.0, 0.0, 0.0, 0.0, 0.0)","$VNYMR,+117.103,+025.145,-009.653,+00.1004,-00.1042,+00.1941,-00.652,+00.870,-09.557,+00.080063,+00.037841,+00.098046*6D
"
1678037836.3071687,7786,1678037836,280808925,imu1_frame,0,0,0,,-0.22856156596375893,0.0436803847242383,0.8400571647533188,0.4900567257993223,"(0.0, 0.0, 0.0, 0.0, 0.0, 0.0, 0.0, 0.0, 0.0)",-0.051759,0.092903,0.141848,"(0.0, 0.0, 0.0, 0.0, 0.0, 0.0, 0.0, 0.0, 0.0)",-0.469,0.007,-9.37,"(0.0, 0.0, 0.0, 0.0, 0.0, 0.0, 0.0, 0.0, 0.0)",0,0,0,,0.0982,-0.1071,0.194,"(0.0, 0.0, 0.0, 0.0, 0.0, 0.0, 0.0, 0.0, 0.0)","$VNYMR,+117.331,+025.266,-009.588,+00.0982,-00.1071,+00.1940,-00.469,+00.007,-09.370,-00.051759,+00.092903,+00.141848*60
"
1678037836.308742,7787,1678037836,305721521,imu1_frame,0,0,0,,-0.22969697281420598,0.04447044294940432,0.839870115506696,0.4897753254938869,"(0.0, 0.0, 0.0, 0.0, 0.0, 0.0, 0.0, 0.0, 0.0)",0.028747,0.092982,-0.050285,"(0.0, 0.0, 0.0, 0.0, 0.0, 0.0, 0.0, 0.0, 0.0)",-0.287,0.13,-8.698,"(0.0, 0.0, 0.0, 0.0, 0.0, 0.0, 0.0, 0.0, 0.0)",0,0,0,,0.0989,-0.1041,0.1948,"(0.0, 0.0, 0.0, 0.0, 0.0, 0.0, 0.0, 0.0, 0.0)","$VNYMR,+117.336,+025.429,-009.580,+00.0989,-00.1041,+00.1948,-00.287,+00.130,-08.698,+00.028747,+00.092982,-00.050285*61
"
1678037836.351107,7788,1678037836,330636501,imu1_frame,0,0,0,,-0.2299679222623462,0.04483745378083652,0.83926425570813,0.4906524906280101,"(0.0, 0.0, 0.0, 0.0, 0.0, 0.0, 0.0, 0.0, 0.0)",0.032915,0.014442,-0.077479,"(0.0, 0.0, 0.0, 0.0, 0.0, 0.0, 0.0, 0.0, 0.0)",-0.371,0.958,-8.831,"(0.0, 0.0, 0.0, 0.0, 0.0, 0.0, 0.0, 0.0, 0.0)",0,0,0,,0.0982,-0.1026,0.1939,"(0.0, 0.0, 0.0, 0.0, 0.0, 0.0, 0.0, 0.0, 0.0)","$VNYMR,+117.205,+025.468,-009.590,+00.0982,-00.1026,+00.1939,-00.371,+00.958,-08.831,+00.032915,+00.014442,-00.077479*66
"
1678037836.3950992,7789,1678037836,355584144,imu1_frame,0,0,0,,-0.22967692936004638,0.044908329422524554,0.8392045291627817,0.4908844144000624,"(0.0, 0.0, 0.0, 0.0, 0.0, 0.0, 0.0, 0.0, 0.0)",-0.023776,-0.054502,0.071299,"(0.0, 0.0, 0.0, 0.0, 0.0, 0.0, 0.0, 0.0, 0.0)",-0.509,1.889,-8.595,"(0.0, 0.0, 0.0, 0.0, 0.0, 0.0, 0.0, 0.0, 0.0)",0,0,0,,0.0982,-0.1064,0.1908,"(0.0, 0.0, 0.0, 0.0, 0.0, 0.0, 0.0, 0.0, 0.0)","$VNYMR,+117.185,+025.441,-009.569,+00.0982,-00.1064,+00.1908,-00.509,+01.889,-08.595,-00.023776,-00.054502,+00.071299*60
"
1678037836.3951323,7790,1678037836,380565404,imu1_frame,0,0,0,,-0.22834765446819522,0.043702168804323704,0.8411837024495354,0.4882186476098218,"(0.0, 0.0, 0.0, 0.0, 0.0, 0.0, 0.0, 0.0, 0.0)",-0.124349,-0.210412,0.304847,"(0.0, 0.0, 0.0, 0.0, 0.0, 0.0, 0.0, 0.0, 0.0)",-0.687,1.074,-9.111,"(0.0, 0.0, 0.0, 0.0, 0.0, 0.0, 0.0, 0.0, 0.0)",0,0,0,,0.0982,-0.1026,0.1939,"(0.0, 0.0, 0.0, 0.0, 0.0, 0.0, 0.0, 0.0, 0.0)","$VNYMR,+117.602,+025.267,-009.512,+00.0982,-00.1026,+00.1939,-00.687,+01.074,-09.111,-00.124349,-00.210412,+00.304847*60
"
1678037836.4430392,7791,1678037836,405464649,imu1_frame,0,0,0,,-0.2262574081885204,0.04230436690196586,0.84345777165456,0.48538326425244743,"(0.0, 0.0, 0.0, 0.0, 0.0, 0.0, 0.0, 0.0, 0.0)",-0.070441,-0.207805,0.217771,"(0.0, 0.0, 0.0, 0.0, 0.0, 0.0, 0.0, 0.0, 0.0)",-0.792,0.293,-10.121,"(0.0, 0.0, 0.0, 0.0, 0.0, 0.0, 0.0, 0.0, 0.0)",0,0,0,,0.0982,-0.1019,0.1892,"(0.0, 0.0, 0.0, 0.0, 0.0, 0.0, 0.0, 0.0, 0.0)","$VNYMR,+118.069,+025.008,-009.417,+00.0982,-00.1019,+00.1892,-00.792,+00.293,-10.121,-00.070441,-00.207805,+00.217771*69
"
1678037836.4430623,7792,1678037836,431471824,imu1_frame,0,0,0,,-0.22540697168868434,0.042062326872072286,0.8444612194405334,0.4840534129961802,"(0.0, 0.0, 0.0, 0.0, 0.0, 0.0, 0.0, 0.0, 0.0)",0.050751,0.019142,0.039511,"(0.0, 0.0, 0.0, 0.0, 0.0, 0.0, 0.0, 0.0, 0.0)",-0.774,0.067,-10.33,"(0.0, 0.0, 0.0, 0.0, 0.0, 0.0, 0.0, 0.0, 0.0)",0,0,0,,0.0982,-0.1034,0.1932,"(0.0, 0.0, 0.0, 0.0, 0.0, 0.0, 0.0, 0.0, 0.0)","$VNYMR,+118.288,+024.924,-009.340,+00.0982,-00.1034,+00.1932,-00.774,+00.067,-10.330,+00.050751,+00.019142,+00.039511*6D
"
1678037836.4910715,7793,1678037836,456300258,imu1_frame,0,0,0,,-0.22590360375047916,0.04408951924313416,0.8437817191232007,0.4848258311795608,"(0.0, 0.0, 0.0, 0.0, 0.0, 0.0, 0.0, 0.0, 0.0)",0.151824,0.148514,-0.075758,"(0.0, 0.0, 0.0, 0.0, 0.0, 0.0, 0.0, 0.0, 0.0)",-0.666,0.537,-9.154,"(0.0, 0.0, 0.0, 0.0, 0.0, 0.0, 0.0, 0.0, 0.0)",0,0,0,,0.0982,-0.1064,0.19,"(0.0, 0.0, 0.0, 0.0, 0.0, 0.0, 0.0, 0.0, 0.0)","$VNYMR,+118.189,+025.086,-009.190,+00.0982,-00.1064,+00.1900,-00.666,+00.537,-09.154,+00.151824,+00.148514,-00.075758*60
"
1678037836.4910805,7794,1678037836,481250047,imu1_frame,0,0,0,,-0.225870030834301,0.046057071273628875,0.8428509959309438,0.48627530681171116,"(0.0, 0.0, 0.0, 0.0, 0.0, 0.0, 0.0, 0.0, 0.0)",0.182215,0.050071,-0.111681,"(0.0, 0.0, 0.0, 0.0, 0.0, 0.0, 0.0, 0.0, 0.0)",-0.58,0.945,-8.8,"(0.0, 0.0, 0.0, 0.0, 0.0, 0.0, 0.0, 0.0, 0.0)",0,0,0,,0.0975,-0.1086,0.1908,"(0.0, 0.0, 0.0, 0.0, 0.0, 0.0, 0.0, 0.0, 0.0)","$VNYMR,+118.014,+025.185,-009.030,+00.0975,-00.1086,+00.1908,-00.580,+00.945,-08.800,+00.182215,+00.050071,-00.111681*65
"
1678037836.5390563,7795,1678037836,506270885,imu1_frame,0,0,0,,-0.22502463083864147,0.047456813835627554,0.8424360138279611,0.4872507864972195,"(0.0, 0.0, 0.0, 0.0, 0.0, 0.0, 0.0, 0.0, 0.0)",0.101622,-0.024043,-0.003123,"(0.0, 0.0, 0.0, 0.0, 0.0, 0.0, 0.0, 0.0, 0.0)",-0.558,1.065,-8.937,"(0.0, 0.0, 0.0, 0.0, 0.0, 0.0, 0.0, 0.0, 0.0)",0,0,0,,0.0976,-0.0952,0.1922,"(0.0, 0.0, 0.0, 0.0, 0.0, 0.0, 0.0, 0.0, 0.0)","$VNYMR,+117.930,+025.175,-008.856,+00.0976,-00.0952,+00.1922,-00.558,+01.065,-08.937,+00.101622,-00.024043,-00.003123*61
"
1678037836.5390692,7796,1678037836,531133413,imu1_frame,0,0,0,,-0.2242579681761131,0.0479054363335156,0.8426713271520242,0.4871534329911502,"(0.0, 0.0, 0.0, 0.0, 0.0, 0.0, 0.0, 0.0, 0.0)",0.044874,-0.032685,0.012196,"(0.0, 0.0, 0.0, 0.0, 0.0, 0.0, 0.0, 0.0, 0.0)",-0.625,0.31,-9.399,"(0.0, 0.0, 0.0, 0.0, 0.0, 0.0, 0.0, 0.0, 0.0)",0,0,0,,0.0968,-0.1071,0.1908,"(0.0, 0.0, 0.0, 0.0, 0.0, 0.0, 0.0, 0.0, 0.0)","$VNYMR,+117.981,+025.127,-008.752,+00.0968,-00.1071,+00.1908,-00.625,+00.310,-09.399,+00.044874,-00.032685,+00.012196*61
"
1678037836.5870678,7797,1678037836,556082725,imu1_frame,0,0,0,,-0.2238418061615074,0.04825283396264726,0.842165389079486,0.4881843578664982,"(0.0, 0.0, 0.0, 0.0, 0.0, 0.0, 0.0, 0.0, 0.0)",0.062924,0.019832,-0.137242,"(0.0, 0.0, 0.0, 0.0, 0.0, 0.0, 0.0, 0.0, 0.0)",-0.698,0.219,-9.67,"(0.0, 0.0, 0.0, 0.0, 0.0, 0.0, 0.0, 0.0, 0.0)",0,0,0,,0.0961,-0.1056,0.1907,"(0.0, 0.0, 0.0, 0.0, 0.0, 0.0, 0.0, 0.0, 0.0)","$VNYMR,+117.856,+025.096,-008.719,+00.0961,-00.1056,+00.1907,-00.698,+00.219,-09.670,+00.062924,+00.019832,-00.137242*66
"
1678037836.5870771,7798,1678037836,581023931,imu1_frame,0,0,0,,-0.2240804544448145,0.04872901657727638,0.8408758823302637,0.49024604373163205,"(0.0, 0.0, 0.0, 0.0, 0.0, 0.0, 0.0, 0.0, 0.0)",0.05763,0.077293,-0.181255,"(0.0, 0.0, 0.0, 0.0, 0.0, 0.0, 0.0, 0.0, 0.0)",-0.788,0.978,-9.854,"(0.0, 0.0, 0.0, 0.0, 0.0, 0.0, 0.0, 0.0, 0.0)",0,0,0,,0.0983,-0.0997,0.1868,"(0.0, 0.0, 0.0, 0.0, 0.0, 0.0, 0.0, 0.0, 0.0)","$VNYMR,+117.560,+025.127,-008.752,+00.0983,-00.0997,+00.1868,-00.788,+00.978,-09.854,+00.057630,+00.077293,-00.181255*61
"
1678037836.631077,7799,1678037836,605999469,imu1_frame,0,0,0,,-0.2247740406685088,0.0496201670153983,0.8399936437898103,0.4913503312908547,"(0.0, 0.0, 0.0, 0.0, 0.0, 0.0, 0.0, 0.0, 0.0)",0.009264,0.092589,-0.018918,"(0.0, 0.0, 0.0, 0.0, 0.0, 0.0, 0.0, 0.0, 0.0)",-0.802,1.241,-9.496,"(0.0, 0.0, 0.0, 0.0, 0.0, 0.0, 0.0, 0.0, 0.0)",0,0,0,,0.0983,-0.0997,0.1884,"(0.0, 0.0, 0.0, 0.0, 0.0, 0.0, 0.0, 0.0, 0.0)","$VNYMR,+117.388,+025.238,-008.745,+00.0983,-00.0997,+00.1884,-00.802,+01.241,-09.496,+00.009264,+00.092589,-00.018918*6D
"
1678037836.6337729,7800,1678037836,631059169,imu1_frame,0,0,0,,-0.22575662592420753,0.05026337684390143,0.8400842594653383,0.49067909655714853,"(0.0, 0.0, 0.0, 0.0, 0.0, 0.0, 0.0, 0.0, 0.0)",-0.006868,0.088498,0.062897,"(0.0, 0.0, 0.0, 0.0, 0.0, 0.0, 0.0, 0.0, 0.0)",-0.657,0.221,-9.214,"(0.0, 0.0, 0.0, 0.0, 0.0, 0.0, 0.0, 0.0, 0.0)",0,0,0,,0.0961,-0.1034,0.1891,"(0.0, 0.0, 0.0, 0.0, 0.0, 0.0, 0.0, 0.0, 0.0)","$VNYMR,+117.454,+025.381,-008.728,+00.0961,-00.1034,+00.1891,-00.657,+00.221,-09.214,-00.006868,+00.088498,+00.062897*67
"
1678037836.6791139,7801,1678037836,655983924,imu1_frame,0,0,0,,-0.22599944731686775,0.05144125322519923,0.8395310008670317,0.4913916420354452,"(0.0, 0.0, 0.0, 0.0, 0.0, 0.0, 0.0, 0.0, 0.0)",0.18524,0.062326,-0.165335,"(0.0, 0.0, 0.0, 0.0, 0.0, 0.0, 0.0, 0.0, 0.0)",-0.714,-0.379,-9.17,"(0.0, 0.0, 0.0, 0.0, 0.0, 0.0, 0.0, 0.0, 0.0)",0,0,0,,0.0961,-0.1004,0.1907,"(0.0, 0.0, 0.0, 0.0, 0.0, 0.0, 0.0, 0.0, 0.0)","$VNYMR,+117.360,+025.469,-008.647,+00.0961,-00.1004,+00.1907,-00.714,-00.379,-09.170,+00.185240,+00.062326,-00.165335*67
"
1678037836.727052,7802,1678037836,680942058,imu1_frame,0,0,0,,-0.22518342565866212,0.05416775600439148,0.8376556379970772,0.4946628257204982,"(0.0, 0.0, 0.0, 0.0, 0.0, 0.0, 0.0, 0.0, 0.0)",0.281949,0.047066,-0.235301,"(0.0, 0.0, 0.0, 0.0, 0.0, 0.0, 0.0, 0.0, 0.0)",-0.737,0.834,-8.515,"(0.0, 0.0, 0.0, 0.0, 0.0, 0.0, 0.0, 0.0, 0.0)",0,0,0,,0.0961,-0.1034,0.1828,"(0.0, 0.0, 0.0, 0.0, 0.0, 0.0, 0.0, 0.0, 0.0)","$VNYMR,+116.965,+025.521,-008.413,+00.0961,-00.1034,+00.1828,-00.737,+00.834,-08.515,+00.281949,+00.047066,-00.235301*6F
"
1678037836.7270656,7803,1678037836,705817699,imu1_frame,0,0,0,,-0.22218891605014493,0.05500774214394451,0.8370263055477831,0.4969841020693885,"(0.0, 0.0, 0.0, 0.0, 0.0, 0.0, 0.0, 0.0, 0.0)",0.223841,-0.308034,-0.10007,"(0.0, 0.0, 0.0, 0.0, 0.0, 0.0, 0.0, 0.0, 0.0)",-1.074,1.405,-8.987,"(0.0, 0.0, 0.0, 0.0, 0.0, 0.0, 0.0, 0.0, 0.0)",0,0,0,,0.0983,-0.1004,0.1907,"(0.0, 0.0, 0.0, 0.0, 0.0, 0.0, 0.0, 0.0, 0.0)","$VNYMR,+116.764,+025.254,-008.185,+00.0983,-00.1004,+00.1907,-01.074,+01.405,-08.987,+00.223841,-00.308034,-00.100070*6D
"
1678037836.771155,7804,1678037836,730865240,imu1_frame,0,0,0,,-0.21713647243659154,0.05451557703239459,0.8381514889860194,0.4973749950581924,"(0.0, 0.0, 0.0, 0.0, 0.0, 0.0, 0.0, 0.0, 0.0)",0.099395,-0.361181,0.141069,"(0.0, 0.0, 0.0, 0.0, 0.0, 0.0, 0.0, 0.0, 0.0)",-1.262,1.13,-10.917,"(0.0, 0.0, 0.0, 0.0, 0.0, 0.0, 0.0, 0.0, 0.0)",0,0,0,,0.0997,-0.099,0.1868,"(0.0, 0.0, 0.0, 0.0, 0.0, 0.0, 0.0, 0.0, 0.0)","$VNYMR,+116.898,+024.722,-007.885,+00.0997,-00.0990,+00.1868,-01.262,+01.130,-10.917,+00.099395,-00.361181,+00.141069*66
"
1678037836.7711854,7805,1678037836,755744934,imu1_frame,0,0,0,,-0.21516984382981555,0.05426408660340295,0.8398547538006336,0.4953799952862734,"(0.0, 0.0, 0.0, 0.0, 0.0, 0.0, 0.0, 0.0, 0.0)",0.028317,-0.013492,0.159261,"(0.0, 0.0, 0.0, 0.0, 0.0, 0.0, 0.0, 0.0, 0.0)",-1.317,-0.915,-10.989,"(0.0, 0.0, 0.0, 0.0, 0.0, 0.0, 0.0, 0.0, 0.0)",0,0,0,,0.0989,-0.1042,0.1869,"(0.0, 0.0, 0.0, 0.0, 0.0, 0.0, 0.0, 0.0, 0.0)","$VNYMR,+117.254,+024.531,-007.709,+00.0989,-00.1042,+00.1869,-01.317,-00.915,-10.989,+00.028317,-00.013492,+00.159261*61
"
1678037836.8150861,7806,1678037836,780707597,imu1_frame,0,0,0,,-0.21576787163068267,0.05646035934900566,0.8388740367929604,0.49653479615111495,"(0.0, 0.0, 0.0, 0.0, 0.0, 0.0, 0.0, 0.0, 0.0)",0.212968,0.202626,-0.240903,"(0.0, 0.0, 0.0, 0.0, 0.0, 0.0, 0.0, 0.0, 0.0)",-1.176,-0.938,-9.484,"(0.0, 0.0, 0.0, 0.0, 0.0, 0.0, 0.0, 0.0, 0.0)",0,0,0,,0.099,-0.0982,0.19,"(0.0, 0.0, 0.0, 0.0, 0.0, 0.0, 0.0, 0.0, 0.0)","$VNYMR,+117.098,+024.713,-007.562,+00.0990,-00.0982,+00.1900,-01.176,-00.938,-09.484,+00.212968,+00.202626,-00.240903*6C
"
1678037836.8151002,7807,1678037836,805665493,imu1_frame,0,0,0,,-0.21631006203210495,0.05921476577793059,0.8365044065692213,0.4999639450678483,"(0.0, 0.0, 0.0, 0.0, 0.0, 0.0, 0.0, 0.0, 0.0)",0.179135,0.125136,-0.226118,"(0.0, 0.0, 0.0, 0.0, 0.0, 0.0, 0.0, 0.0, 0.0)",-1.071,0.651,-8.71,"(0.0, 0.0, 0.0, 0.0, 0.0, 0.0, 0.0, 0.0, 0.0)",0,0,0,,0.099,-0.0997,0.1876,"(0.0, 0.0, 0.0, 0.0, 0.0, 0.0, 0.0, 0.0, 0.0)","$VNYMR,+116.626,+024.904,-007.426,+00.0990,-00.0997,+00.1876,-01.071,+00.651,-08.710,+00.179135,+00.125136,-00.226118*60
"
1678037836.8590918,7808,1678037836,830620765,imu1_frame,0,0,0,,-0.21653258114614926,0.06029129926933574,0.8356278276978342,0.5012032862138879,"(0.0, 0.0, 0.0, 0.0, 0.0, 0.0, 0.0, 0.0, 0.0)",0.03782,0.053824,-0.041479,"(0.0, 0.0, 0.0, 0.0, 0.0, 0.0, 0.0, 0.0, 0.0)",-1.056,0.321,-9.092,"(0.0, 0.0, 0.0, 0.0, 0.0, 0.0, 0.0, 0.0, 0.0)",0,0,0,,0.0997,-0.0997,0.1876,"(0.0, 0.0, 0.0, 0.0, 0.0, 0.0, 0.0, 0.0, 0.0)","$VNYMR,+116.455,+024.981,-007.371,+00.0997,-00.0997,+00.1876,-01.056,+00.321,-09.092,+00.037820,+00.053824,-00.041479*6F
"
1678037836.8591027,7809,1678037836,855545520,imu1_frame,0,0,0,,-0.21672902713403994,0.061579587068056364,0.8350364749715858,0.5019467787734955,"(0.0, 0.0, 0.0, 0.0, 0.0, 0.0, 0.0, 0.0, 0.0)",0.138555,0.071174,-0.069279,"(0.0, 0.0, 0.0, 0.0, 0.0, 0.0, 0.0, 0.0, 0.0)",-1.157,-0.128,-8.915,"(0.0, 0.0, 0.0, 0.0, 0.0, 0.0, 0.0, 0.0, 0.0)",0,0,0,,0.0983,-0.1004,0.1907,"(0.0, 0.0, 0.0, 0.0, 0.0, 0.0, 0.0, 0.0, 0.0)","$VNYMR,+116.359,+025.073,-007.277,+00.0983,-00.1004,+00.1907,-01.157,-00.128,-08.915,+00.138555,+00.071174,-00.069279*6D
"
1678037836.9031339,7810,1678037836,880551576,imu1_frame,0,0,0,,-0.215895911266978,0.06283005363141968,0.8342560626435167,0.5034462849216492,"(0.0, 0.0, 0.0, 0.0, 0.0, 0.0, 0.0, 0.0, 0.0)",0.150515,-0.069479,-0.136411,"(0.0, 0.0, 0.0, 0.0, 0.0, 0.0, 0.0, 0.0, 0.0)",-1.196,-0.204,-8.64,"(0.0, 0.0, 0.0, 0.0, 0.0, 0.0, 0.0, 0.0, 0.0)",0,0,0,,0.0982,-0.0997,0.1852,"(0.0, 0.0, 0.0, 0.0, 0.0, 0.0, 0.0, 0.0, 0.0)","$VNYMR,+116.193,+025.055,-007.137,+00.0982,-00.0997,+00.1852,-01.196,-00.204,-08.640,+00.150515,-00.069479,-00.136411*69
"
1678037836.9093392,7811,1678037836,906457185,imu1_frame,0,0,0,,-0.21342547774281695,0.06276093902924829,0.8335644345687188,0.5056490516203404,"(0.0, 0.0, 0.0, 0.0, 0.0, 0.0, 0.0, 0.0, 0.0)",0.128096,-0.188963,-0.167539,"(0.0, 0.0, 0.0, 0.0, 0.0, 0.0, 0.0, 0.0, 0.0)",-1.307,0.239,-9.776,"(0.0, 0.0, 0.0, 0.0, 0.0, 0.0, 0.0, 0.0, 0.0)",0,0,0,,0.0997,-0.0975,0.186,"(0.0, 0.0, 0.0, 0.0, 0.0, 0.0, 0.0, 0.0, 0.0)","$VNYMR,+115.969,+024.789,-007.036,+00.0997,-00.0975,+00.1860,-01.307,+00.239,-09.776,+00.128096,-00.188963,-00.167539*68
"
1678037836.9551733,7812,1678037836,931391000,imu1_frame,0,0,0,,-0.21168322264692582,0.0630169490838839,0.8330723510450601,0.5071582941274131,"(0.0, 0.0, 0.0, 0.0, 0.0, 0.0, 0.0, 0.0, 0.0)",0.104332,-0.032902,-0.075097,"(0.0, 0.0, 0.0, 0.0, 0.0, 0.0, 0.0, 0.0, 0.0)",-1.369,0.26,-10.263,"(0.0, 0.0, 0.0, 0.0, 0.0, 0.0, 0.0, 0.0, 0.0)",0,0,0,,0.1004,-0.0961,0.1829,"(0.0, 0.0, 0.0, 0.0, 0.0, 0.0, 0.0, 0.0, 0.0)","$VNYMR,+115.821,+024.621,-006.932,+00.1004,-00.0961,+00.1829,-01.369,+00.260,-10.263,+00.104332,-00.032902,-00.075097*6A
"
1678037836.9991255,7813,1678037836,955392837,imu1_frame,0,0,0,,-0.21139839755796686,0.06446676799004461,0.8324511956166878,0.5081139244807098,"(0.0, 0.0, 0.0, 0.0, 0.0, 0.0, 0.0, 0.0, 0.0)",0.100745,0.062274,-0.050514,"(0.0, 0.0, 0.0, 0.0, 0.0, 0.0, 0.0, 0.0, 0.0)",-1.265,0.072,-9.341,"(0.0, 0.0, 0.0, 0.0, 0.0, 0.0, 0.0, 0.0, 0.0)",0,0,0,,0.1004,-0.0968,0.1837,"(0.0, 0.0, 0.0, 0.0, 0.0, 0.0, 0.0, 0.0, 0.0)","$VNYMR,+115.714,+024.675,-006.794,+00.1004,-00.0968,+00.1837,-01.265,+00.072,-09.341,+00.100745,+00.062274,-00.050514*63
"
1678037836.999151,7814,1678037836,981329679,imu1_frame,0,0,0,,-0.21120439295405372,0.06485654777765186,0.8319332104413649,0.5089925991328346,"(0.0, 0.0, 0.0, 0.0, 0.0, 0.0, 0.0, 0.0, 0.0)",0.040688,0.000114,-0.097617,"(0.0, 0.0, 0.0, 0.0, 0.0, 0.0, 0.0, 0.0, 0.0)",-1.268,-0.15,-9.32,"(0.0, 0.0, 0.0, 0.0, 0.0, 0.0, 0.0, 0.0, 0.0)",0,0,0,,0.1019,-0.0901,0.1844,"(0.0, 0.0, 0.0, 0.0, 0.0, 0.0, 0.0, 0.0, 0.0)","$VNYMR,+115.600,+024.673,-006.768,+00.1019,-00.0901,+00.1844,-01.268,-00.150,-09.320,+00.040688,+00.000114,-00.097617*67
"
1678037837.0432065,7815,1678037837,6242036,imu1_frame,0,0,0,,-0.21117233406876634,0.06523966874183038,0.8310296660615182,0.5104309209600132,"(0.0, 0.0, 0.0, 0.0, 0.0, 0.0, 0.0, 0.0, 0.0)",0.062906,0.036743,-0.140743,"(0.0, 0.0, 0.0, 0.0, 0.0, 0.0, 0.0, 0.0, 0.0)",-1.29,0.076,-9.252,"(0.0, 0.0, 0.0, 0.0, 0.0, 0.0, 0.0, 0.0, 0.0)",0,0,0,,0.1012,-0.0916,0.1813,"(0.0, 0.0, 0.0, 0.0, 0.0, 0.0, 0.0, 0.0, 0.0)","$VNYMR,+115.399,+024.682,-006.772,+00.1012,-00.0916,+00.1813,-01.290,+00.076,-09.252,+00.062906,+00.036743,-00.140743*6B
"
1678037837.0432277,7816,1678037837,31660795,imu1_frame,0,0,0,,-0.21105164270583754,0.06564950077105541,0.8300641757264988,0.5119968860600294,"(0.0, 0.0, 0.0, 0.0, 0.0, 0.0, 0.0, 0.0, 0.0)",0.05181,-0.007439,-0.106414,"(0.0, 0.0, 0.0, 0.0, 0.0, 0.0, 0.0, 0.0, 0.0)",-1.364,0.707,-8.985,"(0.0, 0.0, 0.0, 0.0, 0.0, 0.0, 0.0, 0.0, 0.0)",0,0,0,,0.1012,-0.0916,0.1821,"(0.0, 0.0, 0.0, 0.0, 0.0, 0.0, 0.0, 0.0, 0.0)","$VNYMR,+115.183,+024.683,-006.771,+00.1012,-00.0916,+00.1821,-01.364,+00.707,-08.985,+00.051810,-00.007439,-00.106414*65
"
1678037837.0883324,7817,1678037837,56166410,imu1_frame,0,0,0,,-0.2106109786449157,0.0648164649284311,0.8303296982410739,0.5118539183861929,"(0.0, 0.0, 0.0, 0.0, 0.0, 0.0, 0.0, 0.0, 0.0)",-0.102893,-0.104352,0.063064,"(0.0, 0.0, 0.0, 0.0, 0.0, 0.0, 0.0, 0.0, 0.0)",-1.432,0.164,-9.153,"(0.0, 0.0, 0.0, 0.0, 0.0, 0.0, 0.0, 0.0, 0.0)",0,0,0,,0.1011,-0.0975,0.1861,"(0.0, 0.0, 0.0, 0.0, 0.0, 0.0, 0.0, 0.0, 0.0)","$VNYMR,+115.209,+024.589,-006.819,+00.1011,-00.0975,+00.1861,-01.432,+00.164,-09.153,-00.102893,-00.104352,+00.063064*6E
"
1678037837.0883546,7818,1678037837,81133127,imu1_frame,0,0,0,,-0.20975675356171655,0.06325449116611091,0.8306743551934808,0.5118408828009546,"(0.0, 0.0, 0.0, 0.0, 0.0, 0.0, 0.0, 0.0, 0.0)",-0.022081,-0.11602,-0.079833,"(0.0, 0.0, 0.0, 0.0, 0.0, 0.0, 0.0, 0.0, 0.0)",-1.529,-0.363,-9.701,"(0.0, 0.0, 0.0, 0.0, 0.0, 0.0, 0.0, 0.0, 0.0)",0,0,0,,0.1018,-0.0968,0.183,"(0.0, 0.0, 0.0, 0.0, 0.0, 0.0, 0.0, 0.0, 0.0)","$VNYMR,+115.222,+024.408,-006.915,+00.1018,-00.0968,+00.1830,-01.529,-00.363,-09.701,-00.022081,-00.116020,-00.079833*60
"
1678037837.1310575,7819,1678037837,106032848,imu1_frame,0,0,0,,-0.20911817555263662,0.06269876402089807,0.8300019684127128,0.5132593750481432,"(0.0, 0.0, 0.0, 0.0, 0.0, 0.0, 0.0, 0.0, 0.0)",0.024981,-0.018806,-0.139097,"(0.0, 0.0, 0.0, 0.0, 0.0, 0.0, 0.0, 0.0, 0.0)",-1.511,0.19,-9.936,"(0.0, 0.0, 0.0, 0.0, 0.0, 0.0, 0.0, 0.0, 0.0)",0,0,0,,0.1033,-0.0924,0.1837,"(0.0, 0.0, 0.0, 0.0, 0.0, 0.0, 0.0, 0.0, 0.0)","$VNYMR,+115.034,+024.299,-006.969,+00.1033,-00.0924,+00.1837,-01.511,+00.190,-09.936,+00.024981,-00.018806,-00.139097*66
"
1678037837.1339133,7820,1678037837,131057262,imu1_frame,0,0,0,,-0.20952223166154155,0.06230982691035808,0.8292608757231953,0.5143387209852742,"(0.0, 0.0, 0.0, 0.0, 0.0, 0.0, 0.0, 0.0, 0.0)",-0.064441,0.041232,-0.08776,"(0.0, 0.0, 0.0, 0.0, 0.0, 0.0, 0.0, 0.0, 0.0)",-1.438,0.415,-9.629,"(0.0, 0.0, 0.0, 0.0, 0.0, 0.0, 0.0, 0.0, 0.0)",0,0,0,,0.1019,-0.0939,0.1845,"(0.0, 0.0, 0.0, 0.0, 0.0, 0.0, 0.0, 0.0, 0.0)","$VNYMR,+114.858,+024.305,-007.071,+00.1019,-00.0939,+00.1845,-01.438,+00.415,-09.629,-00.064441,+00.041232,-00.087760*6D
"
1678037837.1751852,7821,1678037837,155958890,imu1_frame,0,0,0,,-0.21047072462692815,0.061680482990815876,0.828917672972173,0.5145804927583567,"(0.0, 0.0, 0.0, 0.0, 0.0, 0.0, 0.0, 0.0, 0.0)",-0.094208,0.035265,-0.021715,"(0.0, 0.0, 0.0, 0.0, 0.0, 0.0, 0.0, 0.0, 0.0)",-1.305,0.349,-9.235,"(0.0, 0.0, 0.0, 0.0, 0.0, 0.0, 0.0, 0.0, 0.0)",0,0,0,,0.1033,-0.0924,0.1837,"(0.0, 0.0, 0.0, 0.0, 0.0, 0.0, 0.0, 0.0, 0.0)","$VNYMR,+114.779,+024.356,-007.211,+00.1033,-00.0924,+00.1837,-01.305,+00.349,-09.235,-00.094208,+00.035265,-00.021715*67
"
1678037837.2190678,7822,1678037837,180947303,imu1_frame,0,0,0,,-0.21149600077537845,0.06018873495628905,0.829091308978243,0.5140567665317969,"(0.0, 0.0, 0.0, 0.0, 0.0, 0.0, 0.0, 0.0, 0.0)",-0.199378,-0.010967,0.029471,"(0.0, 0.0, 0.0, 0.0, 0.0, 0.0, 0.0, 0.0, 0.0)",-1.242,0.06,-9.131,"(0.0, 0.0, 0.0, 0.0, 0.0, 0.0, 0.0, 0.0, 0.0)",0,0,0,,0.1026,-0.0947,0.1806,"(0.0, 0.0, 0.0, 0.0, 0.0, 0.0, 0.0, 0.0, 0.0)","$VNYMR,+114.796,+024.367,-007.420,+00.1026,-00.0947,+00.1806,-01.242,+00.060,-09.131,-00.199378,-00.010967,+00.029471*63
"
1678037837.2190905,7823,1678037837,205951213,imu1_frame,0,0,0,,-0.21204746909113006,0.05816916404327287,0.8292947404861065,0.5137338344012724,"(0.0, 0.0, 0.0, 0.0, 0.0, 0.0, 0.0, 0.0, 0.0)",-0.117785,-0.068932,-0.057053,"(0.0, 0.0, 0.0, 0.0, 0.0, 0.0, 0.0, 0.0, 0.0)",-1.339,-0.169,-9.198,"(0.0, 0.0, 0.0, 0.0, 0.0, 0.0, 0.0, 0.0, 0.0)",0,0,0,,0.1025,-0.0969,0.1814,"(0.0, 0.0, 0.0, 0.0, 0.0, 0.0, 0.0, 0.0, 0.0)","$VNYMR,+114.795,+024.297,-007.654,+00.1025,-00.0969,+00.1814,-01.339,-00.169,-09.198,-00.117785,-00.068932,-00.057053*67
"
1678037837.2633052,7824,1678037837,230887413,imu1_frame,0,0,0,,-0.21180472450620458,0.05629288325789521,0.8291125495067109,0.5143367089969815,"(0.0, 0.0, 0.0, 0.0, 0.0, 0.0, 0.0, 0.0, 0.0)",-0.120433,-0.092107,-0.058221,"(0.0, 0.0, 0.0, 0.0, 0.0, 0.0, 0.0, 0.0, 0.0)",-1.335,0.566,-9.631,"(0.0, 0.0, 0.0, 0.0, 0.0, 0.0, 0.0, 0.0, 0.0)",0,0,0,,0.1025,-0.0984,0.1791,"(0.0, 0.0, 0.0, 0.0, 0.0, 0.0, 0.0, 0.0, 0.0)","$VNYMR,+114.693,+024.150,-007.844,+00.1025,-00.0984,+00.1791,-01.335,+00.566,-09.631,-00.120433,-00.092107,-00.058221*6A
"
1678037837.2633266,7825,1678037837,255865812,imu1_frame,0,0,0,,-0.21162895875678078,0.05515868801152484,0.8293838262620397,0.5140945162976425,"(0.0, 0.0, 0.0, 0.0, 0.0, 0.0, 0.0, 0.0, 0.0)",-0.071103,-0.035877,0.063552,"(0.0, 0.0, 0.0, 0.0, 0.0, 0.0, 0.0, 0.0, 0.0)",-1.298,0.824,-9.615,"(0.0, 0.0, 0.0, 0.0, 0.0, 0.0, 0.0, 0.0, 0.0)",0,0,0,,0.104,-0.0939,0.1799,"(0.0, 0.0, 0.0, 0.0, 0.0, 0.0, 0.0, 0.0, 0.0)","$VNYMR,+114.720,+024.064,-007.938,+00.1040,-00.0939,+00.1799,-01.298,+00.824,-09.615,-00.071103,-00.035877,+00.063552*64
"
1678037837.307118,7826,1678037837,280726671,imu1_frame,0,0,0,,-0.2114655742157025,0.05439597772717134,0.830428226984936,0.5125547271807996,"(0.0, 0.0, 0.0, 0.0, 0.0, 0.0, 0.0, 0.0, 0.0)",-0.059268,-0.084883,0.158215,"(0.0, 0.0, 0.0, 0.0, 0.0, 0.0, 0.0, 0.0, 0.0)",-1.293,0.3,-9.156,"(0.0, 0.0, 0.0, 0.0, 0.0, 0.0, 0.0, 0.0, 0.0)",0,0,0,,0.104,-0.094,0.1791,"(0.0, 0.0, 0.0, 0.0, 0.0, 0.0, 0.0, 0.0, 0.0)","$VNYMR,+114.938,+024.015,-007.956,+00.1040,-00.0940,+00.1791,-01.293,+00.300,-09.156,-00.059268,-00.084883,+00.158215*65
"
1678037837.3095098,7827,1678037837,306471824,imu1_frame,0,0,0,,-0.20993504282963332,0.05379181131484255,0.8315654289947266,0.5114026360201956,"(0.0, 0.0, 0.0, 0.0, 0.0, 0.0, 0.0, 0.0, 0.0)",0.031599,-0.166354,0.075167,"(0.0, 0.0, 0.0, 0.0, 0.0, 0.0, 0.0, 0.0, 0.0)",-1.422,-0.168,-9.453,"(0.0, 0.0, 0.0, 0.0, 0.0, 0.0, 0.0, 0.0, 0.0)",0,0,0,,0.1054,-0.094,0.1807,"(0.0, 0.0, 0.0, 0.0, 0.0, 0.0, 0.0, 0.0, 0.0)","$VNYMR,+115.154,+023.839,-007.871,+00.1054,-00.0940,+00.1807,-01.422,-00.168,-09.453,+00.031599,-00.166354,+00.075167*65
"
1678037837.3517542,7828,1678037837,330684900,imu1_frame,0,0,0,,-0.20790580320631807,0.05363588931199315,0.8321308637647198,0.5113282643674497,"(0.0, 0.0, 0.0, 0.0, 0.0, 0.0, 0.0, 0.0, 0.0)",0.054303,-0.118622,0.030724,"(0.0, 0.0, 0.0, 0.0, 0.0, 0.0, 0.0, 0.0, 0.0)",-1.351,0.184,-10.074,"(0.0, 0.0, 0.0, 0.0, 0.0, 0.0, 0.0, 0.0, 0.0)",0,0,0,,0.1033,-0.0932,0.1806,"(0.0, 0.0, 0.0, 0.0, 0.0, 0.0, 0.0, 0.0, 0.0)","$VNYMR,+115.239,+023.632,-007.738,+00.1033,-00.0932,+00.1806,-01.351,+00.184,-10.074,+00.054303,-00.118622,+00.030724*6A
"
1678037837.3991222,7829,1678037837,355729818,imu1_frame,0,0,0,,-0.2072734361710752,0.0537570481388597,0.8327600668670967,0.5105473273505016,"(0.0, 0.0, 0.0, 0.0, 0.0, 0.0, 0.0, 0.0, 0.0)",-0.016111,0.003561,0.114939,"(0.0, 0.0, 0.0, 0.0, 0.0, 0.0, 0.0, 0.0, 0.0)",-1.267,0.032,-9.879,"(0.0, 0.0, 0.0, 0.0, 0.0, 0.0, 0.0, 0.0, 0.0)",0,0,0,,0.104,-0.0955,0.1759,"(0.0, 0.0, 0.0, 0.0, 0.0, 0.0, 0.0, 0.0, 0.0)","$VNYMR,+115.376,+023.585,-007.657,+00.1040,-00.0955,+00.1759,-01.267,+00.032,-09.879,-00.016111,+00.003561,+00.114939*6F
"
1678037837.3991435,7830,1678037837,380501270,imu1_frame,0,0,0,,-0.20785065552721604,0.05344657216022132,0.8332284141733243,0.5095801985315325,"(0.0, 0.0, 0.0, 0.0, 0.0, 0.0, 0.0, 0.0, 0.0)",-0.112736,0.014626,0.019685,"(0.0, 0.0, 0.0, 0.0, 0.0, 0.0, 0.0, 0.0, 0.0)",-1.237,-0.392,-9.101,"(0.0, 0.0, 0.0, 0.0, 0.0, 0.0, 0.0, 0.0, 0.0)",0,0,0,,0.1039,-0.0999,0.1807,"(0.0, 0.0, 0.0, 0.0, 0.0, 0.0, 0.0, 0.0, 0.0)","$VNYMR,+115.489,+023.631,-007.701,+00.1039,-00.0999,+00.1807,-01.237,-00.392,-09.101,-00.112736,+00.014626,+00.019685*64
"
1678037837.4431345,7831,1678037837,405444622,imu1_frame,0,0,0,,-0.20734183931273198,0.05322578967112266,0.8329328762924985,0.5102932495883167,"(0.0, 0.0, 0.0, 0.0, 0.0, 0.0, 0.0, 0.0, 0.0)",0.036782,-0.059113,-0.121944,"(0.0, 0.0, 0.0, 0.0, 0.0, 0.0, 0.0, 0.0, 0.0)",-1.275,-0.018,-9.449,"(0.0, 0.0, 0.0, 0.0, 0.0, 0.0, 0.0, 0.0, 0.0)",0,0,0,,0.1039,-0.0991,0.1807,"(0.0, 0.0, 0.0, 0.0, 0.0, 0.0, 0.0, 0.0, 0.0)","$VNYMR,+115.403,+023.561,-007.708,+00.1039,-00.0991,+00.1807,-01.275,-00.018,-09.449,+00.036782,-00.059113,-00.121944*61
"
1678037837.4431574,7832,1678037837,430470228,imu1_frame,0,0,0,,-0.2070415702035071,0.05364904919473277,0.8323138438664808,0.5113797346750957,"(0.0, 0.0, 0.0, 0.0, 0.0, 0.0, 0.0, 0.0, 0.0)",0.054591,0.053586,-0.027497,"(0.0, 0.0, 0.0, 0.0, 0.0, 0.0, 0.0, 0.0, 0.0)",-1.198,0.837,-9.445,"(0.0, 0.0, 0.0, 0.0, 0.0, 0.0, 0.0, 0.0, 0.0)",0,0,0,,0.1025,-0.0961,0.1806,"(0.0, 0.0, 0.0, 0.0, 0.0, 0.0, 0.0, 0.0, 0.0)","$VNYMR,+115.264,+023.548,-007.676,+00.1025,-00.0961,+00.1806,-01.198,+00.837,-09.445,+00.054591,+00.053586,-00.027497*6D
"
1678037837.487162,7833,1678037837,456358194,imu1_frame,0,0,0,,-0.20725615753054755,0.05403150939432355,0.8327886539194159,0.5104787351705566,"(0.0, 0.0, 0.0, 0.0, 0.0, 0.0, 0.0, 0.0, 0.0)",-0.042968,-0.034709,0.131629,"(0.0, 0.0, 0.0, 0.0, 0.0, 0.0, 0.0, 0.0, 0.0)",-1.153,0.153,-8.489,"(0.0, 0.0, 0.0, 0.0, 0.0, 0.0, 0.0, 0.0, 0.0)",0,0,0,,0.1026,-0.0924,0.1806,"(0.0, 0.0, 0.0, 0.0, 0.0, 0.0, 0.0, 0.0, 0.0)","$VNYMR,+115.390,+023.601,-007.626,+00.1026,-00.0924,+00.1806,-01.153,+00.153,-08.489,-00.042968,-00.034709,+00.131629*6D
"
1678037837.4871833,7834,1678037837,481333494,imu1_frame,0,0,0,,-0.20528324569708603,0.05355516203534293,0.8334678027935943,0.510217654890397,"(0.0, 0.0, 0.0, 0.0, 0.0, 0.0, 0.0, 0.0, 0.0)",0.118506,-0.219668,-0.029074,"(0.0, 0.0, 0.0, 0.0, 0.0, 0.0, 0.0, 0.0, 0.0)",-1.298,-0.205,-9.173,"(0.0, 0.0, 0.0, 0.0, 0.0, 0.0, 0.0, 0.0, 0.0)",0,0,0,,0.1032,-0.0955,0.1767,"(0.0, 0.0, 0.0, 0.0, 0.0, 0.0, 0.0, 0.0, 0.0)","$VNYMR,+115.494,+023.381,-007.525,+00.1032,-00.0955,+00.1767,-01.298,-00.205,-09.173,+00.118506,-00.219668,-00.029074*6C
"
1678037837.531156,7835,1678037837,506319761,imu1_frame,0,0,0,,-0.2021186711268326,0.054312931652059596,0.833306771480315,0.5116619712684694,"(0.0, 0.0, 0.0, 0.0, 0.0, 0.0, 0.0, 0.0, 0.0)",0.198982,-0.116075,-0.053153,"(0.0, 0.0, 0.0, 0.0, 0.0, 0.0, 0.0, 0.0, 0.0)",-1.341,0.73,-10.171,"(0.0, 0.0, 0.0, 0.0, 0.0, 0.0, 0.0, 0.0, 0.0)",0,0,0,,0.1054,-0.0962,0.1823,"(0.0, 0.0, 0.0, 0.0, 0.0, 0.0, 0.0, 0.0, 0.0)","$VNYMR,+115.412,+023.106,-007.265,+00.1054,-00.0962,+00.1823,-01.341,+00.730,-10.171,+00.198982,-00.116075,-00.053153*6A
"
1678037837.5340414,7836,1678037837,531288385,imu1_frame,0,0,0,,-0.20080574355099878,0.055673403751420596,0.8338174546240665,0.5112005260520617,"(0.0, 0.0, 0.0, 0.0, 0.0, 0.0, 0.0, 0.0, 0.0)",0.070165,-0.026175,0.143994,"(0.0, 0.0, 0.0, 0.0, 0.0, 0.0, 0.0, 0.0, 0.0)",-1.289,0.235,-9.271,"(0.0, 0.0, 0.0, 0.0, 0.0, 0.0, 0.0, 0.0, 0.0)",0,0,0,,0.1054,-0.097,0.1792,"(0.0, 0.0, 0.0, 0.0, 0.0, 0.0, 0.0, 0.0, 0.0)","$VNYMR,+115.542,+023.066,-007.021,+00.1054,-00.0970,+00.1792,-01.289,+00.235,-09.271,+00.070165,-00.026175,+00.143994*63
"
1678037837.5791378,7837,1678037837,556201219,imu1_frame,0,0,0,,-0.19969144215995638,0.05590687879517617,0.834629672395689,0.5102852719686538,"(0.0, 0.0, 0.0, 0.0, 0.0, 0.0, 0.0, 0.0, 0.0)",0.05904,-0.103306,0.036638,"(0.0, 0.0, 0.0, 0.0, 0.0, 0.0, 0.0, 0.0, 0.0)",-1.289,-0.762,-8.828,"(0.0, 0.0, 0.0, 0.0, 0.0, 0.0, 0.0, 0.0, 0.0)",0,0,0,,0.1068,-0.0977,0.1793,"(0.0, 0.0, 0.0, 0.0, 0.0, 0.0, 0.0, 0.0, 0.0)","$VNYMR,+115.715,+022.979,-006.892,+00.1068,-00.0977,+00.1793,-01.289,-00.762,-08.828,+00.059040,-00.103306,+00.036638*6C
"
1678037837.6270876,7838,1678037837,581114053,imu1_frame,0,0,0,,-0.197271858344592,0.05616690014352702,0.8342698720930443,0.5117840108399185,"(0.0, 0.0, 0.0, 0.0, 0.0, 0.0, 0.0, 0.0, 0.0)",0.205166,-0.176595,-0.183196,"(0.0, 0.0, 0.0, 0.0, 0.0, 0.0, 0.0, 0.0, 0.0)",-1.37,-0.452,-9.085,"(0.0, 0.0, 0.0, 0.0, 0.0, 0.0, 0.0, 0.0, 0.0)",0,0,0,,0.1061,-0.094,0.1784,"(0.0, 0.0, 0.0, 0.0, 0.0, 0.0, 0.0, 0.0, 0.0)","$VNYMR,+115.589,+022.746,-006.738,+00.1061,-00.0940,+00.1784,-01.370,-00.452,-09.085,+00.205166,-00.176595,-00.183196*6E
"
1678037837.6271112,7839,1678037837,606080770,imu1_frame,0,0,0,,-0.19425907382800198,0.05652156842515602,0.8334560508547134,0.5142175958015366,"(0.0, 0.0, 0.0, 0.0, 0.0, 0.0, 0.0, 0.0, 0.0)",0.09175,-0.164408,-0.108344,"(0.0, 0.0, 0.0, 0.0, 0.0, 0.0, 0.0, 0.0, 0.0)",-1.395,0.396,-9.516,"(0.0, 0.0, 0.0, 0.0, 0.0, 0.0, 0.0, 0.0, 0.0)",0,0,0,,0.1062,-0.0858,0.1814,"(0.0, 0.0, 0.0, 0.0, 0.0, 0.0, 0.0, 0.0, 0.0)","$VNYMR,+115.350,+022.454,-006.559,+00.1062,-00.0858,+00.1814,-01.395,+00.396,-09.516,+00.091750,-00.164408,-00.108344*6D
"
1678037837.6720808,7840,1678037837,631084442,imu1_frame,0,0,0,,-0.1930891278157419,0.05546659751302283,0.8333956413482198,0.514870615068945,"(0.0, 0.0, 0.0, 0.0, 0.0, 0.0, 0.0, 0.0, 0.0)",-0.016174,-0.100059,-0.088105,"(0.0, 0.0, 0.0, 0.0, 0.0, 0.0, 0.0, 0.0, 0.0)",-1.529,-0.456,-9.349,"(0.0, 0.0, 0.0, 0.0, 0.0, 0.0, 0.0, 0.0, 0.0)",0,0,0,,0.1075,-0.0948,0.1785,"(0.0, 0.0, 0.0, 0.0, 0.0, 0.0, 0.0, 0.0, 0.0)","$VNYMR,+115.284,+022.269,-006.601,+00.1075,-00.0948,+00.1785,-01.529,-00.456,-09.349,-00.016174,-00.100059,-00.088105*67
"
1678037837.6721222,7841,1678037837,655997276,imu1_frame,0,0,0,,-0.1919574789204766,0.05462920507044338,0.8325857475570554,0.5166903804066081,"(0.0, 0.0, 0.0, 0.0, 0.0, 0.0, 0.0, 0.0, 0.0)",0.015509,-0.115339,-0.190666,"(0.0, 0.0, 0.0, 0.0, 0.0, 0.0, 0.0, 0.0, 0.0)",-1.554,-0.226,-9.29,"(0.0, 0.0, 0.0, 0.0, 0.0, 0.0, 0.0, 0.0, 0.0)",0,0,0,,0.1082,-0.0941,0.1769,"(0.0, 0.0, 0.0, 0.0, 0.0, 0.0, 0.0, 0.0, 0.0)","$VNYMR,+115.053,+022.092,-006.656,+00.1082,-00.0941,+00.1769,-01.554,-00.226,-09.290,+00.015509,-00.115339,-00.190666*66
"
1678037837.7190666,7842,1678037837,680963277,imu1_frame,0,0,0,,-0.1915691876887167,0.053204879976194164,0.8316707661004794,0.5184536853845728,"(0.0, 0.0, 0.0, 0.0, 0.0, 0.0, 0.0, 0.0, 0.0)",-0.101013,-0.02637,-0.147691,"(0.0, 0.0, 0.0, 0.0, 0.0, 0.0, 0.0, 0.0, 0.0)",-1.577,0.195,-9.625,"(0.0, 0.0, 0.0, 0.0, 0.0, 0.0, 0.0, 0.0, 0.0)",0,0,0,,0.109,-0.0903,0.1777,"(0.0, 0.0, 0.0, 0.0, 0.0, 0.0, 0.0, 0.0, 0.0)","$VNYMR,+114.798,+021.951,-006.820,+00.1090,-00.0903,+00.1777,-01.577,+00.195,-09.625,-00.101013,-00.026370,-00.147691*63
"
1678037837.719096,7843,1678037837,705923080,imu1_frame,0,0,0,,-0.1934904992412955,0.051119018874457835,0.8312614127633322,0.5186065331861685,"(0.0, 0.0, 0.0, 0.0, 0.0, 0.0, 0.0, 0.0, 0.0)",-0.275847,0.07391,-0.024567,"(0.0, 0.0, 0.0, 0.0, 0.0, 0.0, 0.0, 0.0, 0.0)",-1.567,0.185,-8.932,"(0.0, 0.0, 0.0, 0.0, 0.0, 0.0, 0.0, 0.0, 0.0)",0,0,0,,0.1083,-0.0925,0.1808,"(0.0, 0.0, 0.0, 0.0, 0.0, 0.0, 0.0, 0.0, 0.0)","$VNYMR,+114.686,+022.006,-007.169,+00.1083,-00.0925,+00.1808,-01.567,+00.185,-08.932,-00.275847,+00.073910,-00.024567*64
"
1678037837.7680311,7844,1678037837,731518030,imu1_frame,0,0,0,,-0.1951080357072393,0.047562266869103254,0.8316261900525586,0.5177533825977387,"(0.0, 0.0, 0.0, 0.0, 0.0, 0.0, 0.0, 0.0, 0.0)",-0.357499,-0.165774,0.04857,"(0.0, 0.0, 0.0, 0.0, 0.0, 0.0, 0.0, 0.0, 0.0)",-1.652,0.566,-8.431,"(0.0, 0.0, 0.0, 0.0, 0.0, 0.0, 0.0, 0.0, 0.0)",0,0,0,,0.1096,-0.0978,0.1794,"(0.0, 0.0, 0.0, 0.0, 0.0, 0.0, 0.0, 0.0, 0.0)","$VNYMR,+114.710,+021.948,-007.616,+00.1096,-00.0978,+00.1794,-01.652,+00.566,-08.431,-00.357499,-00.165774,+00.048570*69
"
1678037837.7680635,7845,1678037837,755982160,imu1_frame,0,0,0,,-0.19545671665328407,0.040887596638682085,0.8339060855435781,0.5145148363746342,"(0.0, 0.0, 0.0, 0.0, 0.0, 0.0, 0.0, 0.0, 0.0)",-0.570406,-0.296291,0.267488,"(0.0, 0.0, 0.0, 0.0, 0.0, 0.0, 0.0, 0.0, 0.0)",-1.815,-0.376,-9.823,"(0.0, 0.0, 0.0, 0.0, 0.0, 0.0, 0.0, 0.0, 0.0)",0,0,0,,0.1097,-0.0941,0.1746,"(0.0, 0.0, 0.0, 0.0, 0.0, 0.0, 0.0, 0.0, 0.0)","$VNYMR,+115.081,+021.596,-008.220,+00.1097,-00.0941,+00.1746,-01.815,-00.376,-09.823,-00.570406,-00.296291,+00.267488*6D
"
1678037837.8158555,7846,1678037837,780791282,imu1_frame,0,0,0,,-0.19482407275366423,0.0358208735870358,0.8353986355941151,0.512708070288178,"(0.0, 0.0, 0.0, 0.0, 0.0, 0.0, 0.0, 0.0, 0.0)",-0.094039,-0.220381,-0.020921,"(0.0, 0.0, 0.0, 0.0, 0.0, 0.0, 0.0, 0.0, 0.0)",-2.138,-1.044,-10.749,"(0.0, 0.0, 0.0, 0.0, 0.0, 0.0, 0.0, 0.0, 0.0)",0,0,0,,0.111,-0.1023,0.1787,"(0.0, 0.0, 0.0, 0.0, 0.0, 0.0, 0.0, 0.0, 0.0)","$VNYMR,+115.301,+021.238,-008.634,+00.1110,-00.1023,+00.1787,-02.138,-01.044,-10.749,-00.094039,-00.220381,-00.020921*65
"
1678037837.8158808,7847,1678037837,805762767,imu1_frame,0,0,0,,-0.1938181480684457,0.03463470549105373,0.8343334157796157,0.514900683596735,"(0.0, 0.0, 0.0, 0.0, 0.0, 0.0, 0.0, 0.0, 0.0)",0.102099,-0.05231,-0.296775,"(0.0, 0.0, 0.0, 0.0, 0.0, 0.0, 0.0, 0.0, 0.0)",-2.295,0.208,-10.79,"(0.0, 0.0, 0.0, 0.0, 0.0, 0.0, 0.0, 0.0, 0.0)",0,0,0,,0.1103,-0.0964,0.1747,"(0.0, 0.0, 0.0, 0.0, 0.0, 0.0, 0.0, 0.0, 0.0)","$VNYMR,+115.013,+021.044,-008.739,+00.1103,-00.0964,+00.1747,-02.295,+00.208,-10.790,+00.102099,-00.052310,-00.296775*65
"
1678037837.8636987,7848,1678037837,830705165,imu1_frame,0,0,0,,-0.1935749131356158,0.03501863239536955,0.833106393454405,0.516948919696222,"(0.0, 0.0, 0.0, 0.0, 0.0, 0.0, 0.0, 0.0, 0.0)",-0.027846,0.060793,-0.032214,"(0.0, 0.0, 0.0, 0.0, 0.0, 0.0, 0.0, 0.0, 0.0)",-2.079,1.38,-10.602,"(0.0, 0.0, 0.0, 0.0, 0.0, 0.0, 0.0, 0.0, 0.0)",0,0,0,,0.1096,-0.0986,0.1723,"(0.0, 0.0, 0.0, 0.0, 0.0, 0.0, 0.0, 0.0, 0.0)","$VNYMR,+114.736,+021.023,-008.737,+00.1096,-00.0986,+00.1723,-02.079,+01.380,-10.602,-00.027846,+00.060793,-00.032214*6E
"
1678037837.8637109,7849,1678037837,855728626,imu1_frame,0,0,0,,-0.19535344918711142,0.034527088098023906,0.8336846882395408,0.5153782597986742,"(0.0, 0.0, 0.0, 0.0, 0.0, 0.0, 0.0, 0.0, 0.0)",-0.118361,0.10215,0.126346,"(0.0, 0.0, 0.0, 0.0, 0.0, 0.0, 0.0, 0.0, 0.0)",-1.938,-0.134,-9.974,"(0.0, 0.0, 0.0, 0.0, 0.0, 0.0, 0.0, 0.0, 0.0)",0,0,0,,0.111,-0.0986,0.1739,"(0.0, 0.0, 0.0, 0.0, 0.0, 0.0, 0.0, 0.0, 0.0)","$VNYMR,+114.890,+021.181,-008.871,+00.1110,-00.0986,+00.1739,-01.938,-00.134,-09.974,-00.118361,+00.102150,+00.126346*65
"
1678037837.9110875,7850,1678037837,880555868,imu1_frame,0,0,0,,-0.19669611769785372,0.035303301872070245,0.8334287054471731,0.5152289851087287,"(0.0, 0.0, 0.0, 0.0, 0.0, 0.0, 0.0, 0.0, 0.0)",0.069113,0.142078,-0.085616,"(0.0, 0.0, 0.0, 0.0, 0.0, 0.0, 0.0, 0.0, 0.0)",-1.735,-0.479,-9.666,"(0.0, 0.0, 0.0, 0.0, 0.0, 0.0, 0.0, 0.0, 0.0)",0,0,0,,0.1104,-0.0941,0.1778,"(0.0, 0.0, 0.0, 0.0, 0.0, 0.0, 0.0, 0.0, 0.0)","$VNYMR,+114.872,+021.361,-008.885,+00.1104,-00.0941,+00.1778,-01.735,-00.479,-09.666,+00.069113,+00.142078,-00.085616*61
"
